Time Stamp	Low Noise Accelerometer X	Low Noise Accelerometer Y	Low Noise Accelerometer Z	VSenseBatt	GSR	Gyroscope X	Gyroscope Y	Gyroscope Z	Magnetometer X	Magnetometer Y	Magnetometer Z
265026.8249511719	-6.228915662650603	0.1325301204819277	7.795180722891566	4064.468864468864	170.9518599562363	63.07692307692307	-112.3076923076923	-38.46153846153846	-0.9890909090909091	0.3136363636363637	-0.09591836734693879
265046.3562011719	-6.253012048192772	0.1204819277108434	7.807228915662651	4051.282051282051	170.9518599562363	81.53846153846153	-80	-33.84615384615384	-0.9881818181818182	0.3072727272727273	-0.0979591836734694
265065.8874511719	-6.265060240963856	0.1204819277108434	7.807228915662651	4036.630036630037	170.9518599562363	52.30769230769231	-67.69230769230768	-41.53846153846153	-0.98	0.3218181818181818	-0.0989795918367347
265085.4187011719	-6.289156626506024	0.1445783132530121	7.795180722891566	4054.212454212454	357.5259206292456	46.15384615384615	-90.76923076923076	-47.69230769230769	-0.99	0.3090909090909091	-0.1
265104.9499511719	-6.253012048192772	0.1445783132530121	7.795180722891566	4058.608058608058	357.5259206292456	66.15384615384615	-110.7692307692308	-12.30769230769231	-0.9890909090909091	0.3081818181818182	-0.1
265124.4812011719	-6.27710843373494	0.1204819277108434	7.807228915662651	4048.351648351648	357.5259206292456	46.15384615384615	-83.07692307692307	-43.07692307692307	-0.9818181818181818	0.3209090909090909	-0.09591836734693879
265144.0124511719	-6.253012048192772	0.1325301204819277	7.795180722891566	4043.956043956044	357.5259206292456	49.23076923076923	-104.6153846153846	-24.61538461538461	-0.9863636363636363	0.3081818181818182	-0.09693877551020409
265163.5437011719	-6.265060240963856	0.1325301204819277	7.795180722891566	4041.025641025641	357.5259206292456	55.38461538461538	-72.30769230769231	-21.53846153846154	-0.9854545454545455	0.3190909090909091	-0.09591836734693879
265183.0749511719	-6.253012048192772	0.1445783132530121	7.795180722891566	4064.468864468864	356.6333808844507	55.38461538461538	-75.38461538461537	-12.30769230769231	-0.99	0.3190909090909091	-0.09591836734693879
265202.6062011719	-6.265060240963856	0.1325301204819277	7.795180722891566	4046.886446886447	356.6333808844507	58.46153846153845	-59.99999999999999	-23.07692307692307	-0.9890909090909091	0.3072727272727273	-0.1010204081632653
265222.1374511719	-6.265060240963856	0.1325301204819277	7.795180722891566	4033.699633699634	356.6333808844507	66.15384615384615	-89.23076923076923	-52.30769230769231	-0.9845454545454545	0.3181818181818182	-0.0979591836734694
265241.6687011719	-6.265060240963856	0.1204819277108434	7.807228915662651	4055.677655677655	356.6333808844507	56.92307692307692	-86.15384615384615	-36.92307692307692	-0.9863636363636363	0.3145454545454546	-0.09693877551020409
265261.1999511719	-6.265060240963856	0.1204819277108434	7.807228915662651	4051.282051282051	356.6333808844507	75.38461538461537	-104.6153846153846	-44.61538461538461	-0.9827272727272727	0.3081818181818182	-0.0989795918367347
265280.7312011719	-6.253012048192772	0.1325301204819277	7.807228915662651	4060.07326007326	383.2592365476007	58.46153846153845	-83.07692307692307	-30.76923076923077	-0.9790909090909091	0.3309090909090909	-0.09693877551020409
265300.2624511719	-6.240963855421687	0.0963855421686747	7.807228915662651	4048.351648351648	382.8190797029324	73.84615384615384	-92.30769230769229	3.076923076923077	-0.9827272727272727	0.3136363636363637	-0.0989795918367347
265319.7937011719	-6.253012048192772	0.1204819277108434	7.807228915662651	4035.164835164835	382.3799327011319	78.46153846153845	-75.38461538461537	-15.38461538461538	-0.9781818181818182	0.3118181818181818	-0.09693877551020409
265339.3249511719	-6.240963855421687	0.1325301204819277	7.83132530120482	4045.421245421245	382.1607368059006	80	-63.07692307692307	24.61538461538461	-0.9827272727272727	0.3190909090909091	-0.0989795918367347
265358.8562011719	-6.265060240963856	0.108433734939759	7.795180722891566	4051.282051282051	381.5046543567831	58.46153846153845	-52.30769230769231	-3.076923076923077	-0.9790909090909091	0.3245454545454545	-0.0989795918367347
265378.3874511719	-6.27710843373494	0.1325301204819277	7.795180722891566	4043.956043956044	381.0685161191983	44.61538461538461	-64.61538461538461	-10.76923076923077	-0.9818181818181818	0.3218181818181818	-0.09489795918367348
265397.9187011719	-6.253012048192772	0.0963855421686747	7.807228915662651	4052.747252747252	380.6333739342265	20	-96.92307692307692	-41.53846153846153	-0.9890909090909091	0.3145454545454546	-0.0979591836734694
265417.4499511719	-6.265060240963856	0.108433734939759	7.819277108433735	4045.421245421245	379.9825208040429	35.38461538461538	-113.8461538461538	-40	-0.9872727272727273	0.3072727272727273	-0.0979591836734694
265436.9812011719	-6.228915662650603	0.1204819277108434	7.83132530120482	4058.608058608058	379.5498538733062	64.61538461538461	-110.7692307692308	-33.84615384615384	-0.9836363636363636	0.3163636363636364	-0.0979591836734694
265456.5124511719	-6.253012048192772	0.1325301204819277	7.807228915662651	4036.630036630037	378.9026977872082	70.76923076923076	-75.38461538461537	-32.30769230769231	-0.99	0.3145454545454546	-0.09591836734693879
265476.0437011719	-6.265060240963856	0.1204819277108434	7.807228915662651	4042.490842490842	378.4724850503368	66.15384615384615	-81.53846153846153	-24.61538461538461	-0.9818181818181818	0.3109090909090909	-0.1030612244897959
265495.5749511719	-6.265060240963856	0.1325301204819277	7.807228915662651	4054.212454212454	378.0432481475881	69.23076923076923	-95.38461538461537	-35.38461538461538	-0.980909090909091	0.3245454545454545	-0.0989795918367347
265515.1062011719	-6.265060240963856	0.108433734939759	7.795180722891566	4048.351648351648	377.401215231913	78.46153846153845	-73.84615384615384	-35.38461538461538	-0.9890909090909091	0.3072727272727273	-0.0989795918367347
265534.6374511719	-6.265060240963856	0.1204819277108434	7.807228915662651	4045.421245421245	376.7613593549845	52.30769230769231	-90.76923076923076	-46.15384615384615	-0.9790909090909091	0.3109090909090909	-0.1010204081632653
265554.1687011719	-6.253012048192772	0.1445783132530121	7.807228915662651	4029.304029304029	376.1236694625192	58.46153846153845	-93.84615384615384	-41.53846153846153	-0.9845454545454545	0.3136363636363637	-0.1010204081632653
265573.6999511719	-6.240963855421687	0.1204819277108434	7.807228915662651	4046.886446886447	375.6997407671789	55.38461538461538	-99.99999999999999	-18.46153846153846	-0.9854545454545455	0.3072727272727273	-0.1010204081632653
265593.2312011719	-6.253012048192772	0.108433734939759	7.807228915662651	4058.608058608058	375.0656364863851	59.99999999999999	-101.5384615384615	-47.69230769230769	-0.9818181818181818	0.3090909090909091	-0.1010204081632653
265612.7624511719	-6.228915662650603	0.108433734939759	7.819277108433735	4052.747252747252	374.4336690755233	61.53846153846153	-99.99999999999999	-23.07692307692307	-0.9881818181818182	0.3163636363636364	-0.09489795918367348
265632.2937011719	-6.240963855421687	0.1325301204819277	7.807228915662651	4030.769230769231	373.8038277511961	67.69230769230768	-72.30769230769231	-15.38461538461538	-0.9881818181818182	0.3118181818181818	-0.1010204081632653
265651.8249511719	-6.265060240963856	0.1204819277108434	7.807228915662651	4043.956043956044	373.1761018024405	59.99999999999999	-67.69230769230768	-29.23076923076923	-0.9827272727272727	0.3172727272727273	-0.1010204081632653
265671.3562011719	-6.265060240963856	0.1204819277108434	7.807228915662651	4033.699633699634	372.55048059012	78.46153846153845	-70.76923076923076	-26.15384615384615	-0.9881818181818182	0.3136363636363637	-0.09693877551020409
265690.8874511719	-6.253012048192772	0.1204819277108434	7.819277108433735	4039.560439560439	371.9269535463236	73.84615384615384	-75.38461538461537	-35.38461538461538	-0.98	0.3136363636363637	-0.0979591836734694
265710.4187011719	-6.265060240963856	0.1204819277108434	7.807228915662651	4023.443223443223	371.0988236167291	76.92307692307692	-67.69230769230768	-13.84615384615385	-0.9845454545454545	0.3181818181818182	-0.1
265729.9499511719	-6.265060240963856	0.1325301204819277	7.795180722891566	4038.095238095238	370.4801422643746	55.38461538461538	-50.76923076923077	-33.84615384615384	-0.9872727272727273	0.3145454545454546	-0.09591836734693879
265749.4812011719	-6.240963855421687	0.1204819277108434	7.819277108433735	4064.468864468864	369.8635203609867	49.23076923076923	-78.46153846153845	-4.615384615384615	-0.9827272727272727	0.3136363636363637	-0.09183673469387756
265769.0124511719	-6.240963855421687	0.1204819277108434	7.807228915662651	4054.212454212454	369.2489476404992	63.07692307692307	-55.38461538461538	-29.23076923076923	-0.9745454545454545	0.3236363636363636	-0.1
265788.5437011719	-6.253012048192772	0.108433734939759	7.795180722891566	4045.421245421245	368.6364139049655	66.15384615384615	-61.53846153846153	-27.69230769230769	-0.9881818181818182	0.3081818181818182	-0.1020408163265306
265808.0749511719	-6.253012048192772	0.1325301204819277	7.795180722891566	4055.677655677655	368.0259090239953	64.61538461538461	-47.69230769230769	-1.538461538461538	-0.9818181818181818	0.3081818181818182	-0.1010204081632653
265827.6062011719	-6.253012048192772	0.108433734939759	7.807228915662651	4054.212454212454	367.4174229341955	61.53846153846153	-52.30769230769231	9.23076923076923	-0.99	0.3054545454545455	-0.09489795918367348
265847.1374511719	-6.27710843373494	0.1204819277108434	7.807228915662651	4038.095238095238	366.6092312204421	50.76923076923077	-36.92307692307692	-6.153846153846153	-0.9872727272727273	0.3045454545454546	-0.0989795918367347
265866.6687011719	-6.265060240963856	0.1204819277108434	7.795180722891566	4029.304029304029	366.0054168801698	58.46153846153845	-47.69230769230769	-24.61538461538461	-0.9854545454545455	0.3254545454545454	-0.1020408163265306
265886.1999511719	-6.27710843373494	0.108433734939759	7.807228915662651	4046.886446886447	365.4035882632368	76.92307692307692	-72.30769230769231	-66.15384615384615	-0.9836363636363636	0.3063636363636363	-0.1010204081632653
265905.7312011719	-6.253012048192772	0.1204819277108434	7.807228915662651	4041.025641025641	364.8037355902524	56.92307692307692	-90.76923076923076	-1.538461538461538	-0.9818181818181818	0.31	-0.1010204081632653
265925.2624511719	-6.253012048192772	0.1325301204819277	7.807228915662651	4046.886446886447	364.2058491459372	61.53846153846153	-76.92307692307692	-27.69230769230769	-0.9845454545454545	0.3209090909090909	-0.09591836734693879
265944.7937011719	-6.265060240963856	0.0963855421686747	7.807228915662651	4038.095238095238	363.6099192785979	75.38461538461537	-56.92307692307692	-27.69230769230769	-0.98	0.3136363636363637	-0.09693877551020409
265964.3249511719	-6.27710843373494	0.1204819277108434	7.783132530120482	4055.677655677655	363.015936399608	53.84615384615384	-50.76923076923077	-15.38461538461538	-0.9818181818181818	0.3136363636363637	-0.09693877551020409
265983.8562011719	-6.265060240963856	0.1325301204819277	7.807228915662651	4029.304029304029	362.4238909828936	49.23076923076923	-81.53846153846153	-24.61538461538461	-0.9836363636363636	0.3236363636363636	-0.0979591836734694
266003.3874511719	-6.253012048192772	0.0963855421686747	7.819277108433735	4041.025641025641	361.8337735644245	52.30769230769231	-69.23076923076923	-13.84615384615385	-0.9772727272727273	0.3263636363636364	-0.0989795918367347
266022.9187011719	-6.228915662650603	0.1325301204819277	7.795180722891566	4042.490842490842	361.4414284165251	59.99999999999999	-35.38461538461538	20	-0.9781818181818182	0.3145454545454546	-0.1
266042.4499511719	-6.301204819277109	0.1204819277108434	7.795180722891566	4051.282051282051	360.8545034642032	47.69230769230769	3.076923076923077	1.538461538461538	-0.9790909090909091	0.3163636363636364	-0.0979591836734694
266061.9812011719	-6.27710843373494	0.1325301204819277	7.795180722891566	4064.468864468864	360.269481572216	49.23076923076923	-38.46153846153846	-49.23076923076923	-0.9890909090909091	0.3072727272727273	-0.1
266081.5124511719	-6.265060240963856	0.108433734939759	7.807228915662651	4042.490842490842	359.8805196674704	36.92307692307692	-98.46153846153845	-66.15384615384615	-0.9890909090909091	0.3154545454545454	-0.09693877551020409
266101.0437011719	-6.240963855421687	0.108433734939759	7.795180722891566	4032.234432234432	359.4923967358091	49.23076923076923	-106.1538461538462	-58.46153846153845	-0.9845454545454545	0.3045454545454546	-0.1010204081632653
266120.5749511719	-6.228915662650603	0.108433734939759	7.807228915662651	4051.282051282051	359.1051100657162	44.61538461538461	-101.5384615384615	-63.07692307692307	-0.980909090909091	0.32	-0.1010204081632653
266140.1062011719	-6.240963855421687	0.1204819277108434	7.819277108433735	4054.212454212454	358.7186569573483	40	-69.23076923076923	-26.15384615384615	-0.9890909090909091	0.3172727272727273	-0.09693877551020409
266159.6374511719	-6.265060240963856	0.0963855421686747	7.807228915662651	4045.421245421245	358.1405343456772	53.84615384615384	-55.38461538461538	-1.538461538461538	-0.9754545454545455	0.32	-0.0989795918367347
266179.1687011719	-6.289156626506024	0.1325301204819277	7.795180722891566	4055.677655677655	357.7561534058386	52.30769230769231	-38.46153846153846	-18.46153846153846	-0.9827272727272727	0.3190909090909091	-0.0989795918367347
266198.6999511719	-6.265060240963856	0.0963855421686747	7.795180722891566	4052.747252747252	357.1811265492731	55.38461538461538	-73.84615384615384	-58.46153846153845	-0.9890909090909091	0.3181818181818182	-0.09489795918367348
266218.2312011719	-6.228915662650603	0.1204819277108434	7.807228915662651	4054.212454212454	356.7988011560282	66.15384615384615	-106.1538461538462	-47.69230769230769	-0.9827272727272727	0.3072727272727273	-0.09693877551020409
266237.7624511719	-6.253012048192772	0.1325301204819277	7.83132530120482	4036.630036630037	356.4172933670742	67.69230769230768	-101.5384615384615	-53.84615384615384	-0.9790909090909091	0.3172727272727273	-0.0989795918367347
266257.2937011719	-6.265060240963856	0.108433734939759	7.819277108433735	4041.025641025641	356.0366005625378	43.07692307692307	-41.53846153846153	-13.84615384615385	-0.9863636363636363	0.3054545454545455	-0.09693877551020409
266276.8249511719	-6.240963855421687	0.0963855421686747	7.819277108433735	4054.212454212454	355.6567201337269	63.07692307692307	-27.69230769230769	-9.23076923076923	-0.9836363636363636	0.3090909090909091	-0.1030612244897959
266296.3562011719	-6.253012048192772	0.08433734939759037	7.795180722891566	4054.212454212454	355.4670837480449	63.07692307692307	-24.61538461538461	-16.92307692307692	-0.9872727272727273	0.3172727272727273	-0.09693877551020409
266315.8874511719	-6.27710843373494	0.1204819277108434	7.795180722891566	4041.025641025641	355.0884170158369	78.46153846153845	-33.84615384615384	-33.84615384615384	-0.9745454545454545	0.3109090909090909	-0.1
266335.4187011719	-6.265060240963856	0.108433734939759	7.807228915662651	4039.560439560439	354.8993860240621	56.92307692307692	-63.07692307692307	-35.38461538461538	-0.980909090909091	0.3190909090909091	-0.09489795918367348
266354.9499511719	-6.240963855421687	0.108433734939759	7.795180722891566	4033.699633699634	354.5219271811961	38.46153846153846	-69.23076923076923	-56.92307692307692	-0.9918181818181818	0.3172727272727273	-0.09591836734693879
266374.4812011719	-6.240963855421687	0.0963855421686747	7.807228915662651	4054.212454212454	354.145270389914	33.84615384615384	-56.92307692307692	-27.69230769230769	-0.980909090909091	0.3136363636363637	-0.1
266394.0124511719	-6.265060240963856	0.108433734939759	7.795180722891566	4054.212454212454	353.9572419651706	53.84615384615384	-38.46153846153846	-24.61538461538461	-0.9818181818181818	0.3227272727272728	-0.0979591836734694
266413.5437011719	-6.265060240963856	0.1204819277108434	7.807228915662651	4030.769230769231	353.7694130965437	30.76923076923077	-47.69230769230769	-10.76923076923077	-0.9863636363636363	0.3190909090909091	-0.0979591836734694
266433.0749511719	-6.289156626506024	0.108433734939759	7.795180722891566	4057.142857142857	353.5817834665158	40	-59.99999999999999	-18.46153846153846	-0.9854545454545455	0.3181818181818182	-0.1
266452.6062011719	-6.253012048192772	0.1204819277108434	7.807228915662651	4052.747252747252	353.3943527582429	44.61538461538461	-70.76923076923076	-50.76923076923077	-0.9827272727272727	0.3190909090909091	-0.1020408163265306
266472.1374511719	-6.253012048192772	0.108433734939759	7.807228915662651	4048.351648351648	353.0200868429413	44.61538461538461	-95.38461538461537	-44.61538461538461	-0.9881818181818182	0.3054545454545455	-0.0989795918367347
266491.6687011719	-6.253012048192772	0.108433734939759	7.807228915662651	4052.747252747252	352.8332510055748	55.38461538461538	-64.61538461538461	-61.53846153846153	-0.980909090909091	0.3118181818181818	-0.1
266511.1999511719	-6.240963855421687	0.0963855421686747	7.795180722891566	4054.212454212454	352.4601720005639	50.76923076923077	-43.07692307692307	-7.692307692307692	-0.9872727272727273	0.3172727272727273	-0.09591836734693879
266530.7312011719	-6.27710843373494	0.1204819277108434	7.783132530120482	4055.677655677655	352.2739282065734	47.69230769230769	-59.99999999999999	-23.07692307692307	-0.9836363636363636	0.3218181818181818	-0.09183673469387756
266550.2624511719	-6.27710843373494	0.108433734939759	7.795180722891566	4039.560439560439	351.9020304747158	49.23076923076923	-61.53846153846153	-50.76923076923077	-0.9836363636363636	0.3245454545454545	-0.09693877551020409
266569.7937011719	-6.253012048192772	0.108433734939759	7.795180722891566	4041.025641025641	351.7163759144625	56.92307692307692	-93.84615384615384	-50.76923076923077	-0.9827272727272727	0.3181818181818182	-0.09591836734693879
266589.3249511719	-6.253012048192772	0.108433734939759	7.807228915662651	4048.351648351648	351.5309171441628	55.38461538461538	-106.1538461538462	-49.23076923076923	-0.9836363636363636	0.3072727272727273	-0.0989795918367347
266608.8562011719	-6.240963855421687	0.108433734939759	7.807228915662651	4046.886446886447	351.3456538542617	55.38461538461538	-93.84615384615384	-41.53846153846153	-0.9836363636363636	0.3154545454545454	-0.1
266628.3874511719	-6.289156626506024	0.0963855421686747	7.783132530120482	4039.560439560439	351.1605857358571	56.92307692307692	-59.99999999999999	-49.23076923076923	-0.9863636363636363	0.3163636363636364	-0.09693877551020409
266647.9187011719	-6.265060240963856	0.108433734939759	7.795180722891566	4055.677655677655	351.1605857358571	69.23076923076923	-52.30769230769231	-32.30769230769231	-0.9818181818181818	0.3190909090909091	-0.1020408163265306
266667.4499511719	-6.289156626506024	0.0963855421686747	7.807228915662651	4052.747252747252	350.9757124806964	61.53846153846153	-95.38461538461537	-59.99999999999999	-0.9772727272727273	0.3227272727272728	-0.0989795918367347
266686.9812011719	-6.204819277108434	0.1204819277108434	7.843373493975904	4064.468864468864	350.9757124806964	59.99999999999999	-109.2307692307692	-35.38461538461538	-0.9845454545454545	0.3081818181818182	-0.1020408163265306
266706.5124511719	-6.228915662650603	0.0963855421686747	7.819277108433735	4051.282051282051	350.7910337811766	30.76923076923077	-92.30769230769229	-12.30769230769231	-0.9818181818181818	0.3127272727272727	-0.1020408163265306
266726.0437011719	-6.289156626506024	0.108433734939759	7.783132530120482	4033.699633699634	350.7910337811766	69.23076923076923	-53.84615384615384	-6.153846153846153	-0.9763636363636363	0.3145454545454546	-0.09693877551020409
266745.5749511719	-6.313253012048193	0.108433734939759	7.807228915662651	4054.212454212454	350.6065493303415	75.38461538461537	-23.07692307692307	-46.15384615384615	-0.9827272727272727	0.3163636363636364	-0.09693877551020409
266765.1062011719	-6.253012048192772	0.1204819277108434	7.819277108433735	4039.560439560439	350.6065493303415	47.69230769230769	-90.76923076923076	-55.38461538461538	-0.9827272727272727	0.3181818181818182	-0.1010204081632653
266784.6374511719	-6.253012048192772	0.08433734939759037	7.807228915662651	4039.560439560439	350.4222588218804	43.07692307692307	-83.07692307692307	-50.76923076923077	-0.9863636363636363	0.3118181818181818	-0.0989795918367347
266804.1687011719	-6.253012048192772	0.08433734939759037	7.819277108433735	4051.282051282051	350.6065493303415	56.92307692307692	-90.76923076923076	-44.61538461538461	-0.9863636363636363	0.31	-0.1
266823.6999511719	-6.253012048192772	0.0963855421686747	7.807228915662651	4035.164835164835	350.4222588218804	40	-81.53846153846153	-15.38461538461538	-0.98	0.3218181818181818	-0.0989795918367347
266843.2312011719	-6.253012048192772	0.108433734939759	7.807228915662651	4055.677655677655	350.4222588218804	76.92307692307692	-52.30769230769231	-18.46153846153846	-0.98	0.3163636363636364	-0.09693877551020409
266862.7624511719	-6.289156626506024	0.0963855421686747	7.783132530120482	4057.142857142857	350.4222588218804	80	-49.23076923076923	-20	-0.980909090909091	0.3272727272727273	-0.09489795918367348
266882.2937011719	-6.27710843373494	0.108433734939759	7.795180722891566	4033.699633699634	350.2381619501261	58.46153846153845	-112.3076923076923	-56.92307692307692	-0.9827272727272727	0.3254545454545454	-0.09693877551020409
266901.8249511719	-6.253012048192772	0.1204819277108434	7.819277108433735	4064.468864468864	350.4222588218804	75.38461538461537	-101.5384615384615	-41.53846153846153	-0.9872727272727273	0.3118181818181818	-0.1010204081632653
266921.3562011719	-6.228915662650603	0.1204819277108434	7.819277108433735	4046.886446886447	350.4222588218804	72.30769230769231	-101.5384615384615	-27.69230769230769	-0.980909090909091	0.3181818181818182	-0.1
266940.8874511719	-6.253012048192772	0.0963855421686747	7.807228915662651	4042.490842490842	350.2381619501261	67.69230769230768	-47.69230769230769	0	-0.9872727272727273	0.3109090909090909	-0.09591836734693879
266960.4187011719	-6.265060240963856	0.108433734939759	7.795180722891566	4049.81684981685	350.4222588218804	61.53846153846153	-63.07692307692307	-10.76923076923077	-0.9845454545454545	0.31	-0.1020408163265306
266979.9499511719	-6.265060240963856	0.0963855421686747	7.795180722891566	4051.282051282051	350.2381619501261	63.07692307692307	-78.46153846153845	-6.153846153846153	-0.980909090909091	0.3172727272727273	-0.0989795918367347
266999.4812011719	-6.265060240963856	0.108433734939759	7.807228915662651	4063.003663003663	350.6065493303415	86.15384615384615	-72.30769230769231	-21.53846153846154	-0.98	0.3309090909090909	-0.09591836734693879
267019.0124511719	-6.265060240963856	0.108433734939759	7.807228915662651	4051.282051282051	350.4222588218804	59.99999999999999	-83.07692307692307	-32.30769230769231	-0.9863636363636363	0.3181818181818182	-0.09693877551020409
267038.5437011719	-6.253012048192772	0.0963855421686747	7.807228915662651	4038.095238095238	350.4222588218804	63.07692307692307	-78.46153846153845	1.538461538461538	-0.980909090909091	0.3163636363636364	-0.0979591836734694
267058.0749511719	-6.253012048192772	0.108433734939759	7.807228915662651	4055.677655677655	350.4222588218804	56.92307692307692	-63.07692307692307	6.153846153846153	-0.9863636363636363	0.3118181818181818	-0.1
267077.6062011719	-6.27710843373494	0.0963855421686747	7.807228915662651	4051.282051282051	350.4222588218804	66.15384615384615	-49.23076923076923	3.076923076923077	-0.9781818181818182	0.3227272727272728	-0.09489795918367348
267097.1374511719	-6.265060240963856	0.108433734939759	7.783132530120482	4045.421245421245	350.4222588218804	72.30769230769231	-49.23076923076923	-18.46153846153846	-0.9836363636363636	0.3263636363636364	-0.09489795918367348
267116.6687011719	-6.27710843373494	0.0963855421686747	7.807228915662651	4023.443223443223	350.2381619501261	75.38461538461537	-64.61538461538461	-24.61538461538461	-0.9781818181818182	0.3245454545454545	-0.1
267136.1999511719	-6.253012048192772	0.108433734939759	7.795180722891566	4054.212454212454	350.6065493303415	70.76923076923076	-84.61538461538461	-6.153846153846153	-0.9827272727272727	0.3081818181818182	-0.1030612244897959
267155.7312011719	-6.240963855421687	0.0963855421686747	7.83132530120482	4057.142857142857	350.7910337811766	70.76923076923076	-98.46153846153845	-27.69230769230769	-0.9818181818181818	0.3281818181818182	-0.09591836734693879
267175.2624511719	-6.253012048192772	0.0963855421686747	7.807228915662651	4054.212454212454	350.7910337811766	84.61538461538461	-69.23076923076923	-24.61538461538461	-0.9854545454545455	0.3236363636363636	-0.0989795918367347
267194.7937011719	-6.265060240963856	0.0963855421686747	7.795180722891566	4029.304029304029	350.7910337811766	80	-56.92307692307692	-16.92307692307692	-0.9836363636363636	0.3163636363636364	-0.0989795918367347
267214.3249511719	-6.253012048192772	0.108433734939759	7.807228915662651	4064.468864468864	350.9757124806964	78.46153846153845	-69.23076923076923	-20	-0.9890909090909091	0.3063636363636363	-0.09591836734693879
267233.8562011719	-6.240963855421687	0.1204819277108434	7.807228915662651	4048.351648351648	350.9757124806964	66.15384615384615	-63.07692307692307	-20	-0.9854545454545455	0.3127272727272727	-0.1030612244897959
267253.3874511719	-6.253012048192772	0.0963855421686747	7.795180722891566	4045.421245421245	350.9757124806964	80	-73.84615384615384	-33.84615384615384	-0.9818181818181818	0.3263636363636364	-0.09693877551020409
267272.9187011719	-6.253012048192772	0.108433734939759	7.807228915662651	4058.608058608058	351.3456538542617	83.07692307692307	-95.38461538461537	-29.23076923076923	-0.9845454545454545	0.3063636363636363	-0.0979591836734694
267292.4499511719	-6.265060240963856	0.0963855421686747	7.807228915662651	4049.81684981685	351.3456538542617	86.15384615384615	-81.53846153846153	-36.92307692307692	-0.9836363636363636	0.3054545454545455	-0.1030612244897959
267311.9812011719	-6.27710843373494	0.1325301204819277	7.783132530120482	4049.81684981685	351.3456538542617	93.84615384615384	-120	-38.46153846153846	-0.9845454545454545	0.3236363636363636	-0.0979591836734694
267331.5124511719	-6.253012048192772	0.1204819277108434	7.83132530120482	4052.747252747252	351.5309171441628	80	-113.8461538461538	-46.15384615384615	-0.9854545454545455	0.3090909090909091	-0.1
267351.0437011719	-6.265060240963856	0.108433734939759	7.807228915662651	4035.164835164835	351.7163759144625	72.30769230769231	-70.76923076923076	-36.92307692307692	-0.9772727272727273	0.3154545454545454	-0.0989795918367347
267370.5749511719	-6.216867469879518	0.108433734939759	7.807228915662651	4051.282051282051	351.9020304747158	53.84615384615384	-38.46153846153846	-24.61538461538461	-0.9872727272727273	0.3036363636363637	-0.1020408163265306
267390.1062011719	-6.265060240963856	0.1204819277108434	7.843373493975904	4039.560439560439	351.9020304747158	67.69230769230768	-99.99999999999999	10.76923076923077	-0.9818181818181818	0.3090909090909091	-0.1020408163265306
267409.6374511719	-6.216867469879518	0.108433734939759	7.819277108433735	4043.956043956044	351.9020304747158	106.1538461538462	-24.61538461538461	12.30769230769231	-0.9827272727272727	0.3227272727272728	-0.1010204081632653
267429.1687011719	-6.265060240963856	0.1325301204819277	7.759036144578314	4048.351648351648	352.2739282065734	95.38461538461537	10.76923076923077	-6.153846153846153	-0.9881818181818182	0.3045454545454546	-0.1
267448.6999511719	-6.313253012048193	0.0963855421686747	7.807228915662651	4045.421245421245	352.2739282065734	56.92307692307692	-81.53846153846153	-10.76923076923077	-0.9854545454545455	0.3063636363636363	-0.0989795918367347
267468.2312011719	-6.228915662650603	0.1325301204819277	7.795180722891566	4051.282051282051	352.6466128292838	58.46153846153845	-81.53846153846153	-46.15384615384615	-0.9872727272727273	0.3190909090909091	-0.09591836734693879
267487.7624511719	-6.265060240963856	0.108433734939759	7.807228915662651	4049.81684981685	352.6466128292838	58.46153846153845	-73.84615384615384	-38.46153846153846	-0.9863636363636363	0.3090909090909091	-0.0989795918367347
267507.2937011719	-6.240963855421687	0.08433734939759037	7.807228915662651	4032.234432234432	352.8332510055748	73.84615384615384	-116.9230769230769	-30.76923076923077	-0.98	0.3190909090909091	-0.0989795918367347
267526.8249511719	-6.253012048192772	0.108433734939759	7.819277108433735	4055.677655677655	353.0200868429413	89.23076923076923	-78.46153846153845	-50.76923076923077	-0.9863636363636363	0.3190909090909091	-0.0979591836734694
267546.3562011719	-6.240963855421687	0.108433734939759	7.819277108433735	4041.025641025641	353.2071206555524	67.69230769230768	-99.99999999999999	-10.76923076923077	-0.9872727272727273	0.3081818181818182	-0.1020408163265306
267565.8874511719	-6.253012048192772	0.1325301204819277	7.795180722891566	4041.025641025641	353.3943527582429	63.07692307692307	-86.15384615384615	-13.84615384615385	-0.9781818181818182	0.32	-0.1
267585.4187011719	-6.240963855421687	0.108433734939759	7.795180722891566	4054.212454212454	353.5817834665158	86.15384615384615	-93.84615384615384	-33.84615384615384	-0.9881818181818182	0.3081818181818182	-0.0979591836734694
267604.9499511719	-6.265060240963856	0.0963855421686747	7.819277108433735	4051.282051282051	353.7694130965437	76.92307692307692	-75.38461538461537	-27.69230769230769	-0.99	0.3090909090909091	-0.1020408163265306
267624.4812011719	-6.240963855421687	0.1325301204819277	7.807228915662651	4046.886446886447	354.145270389914	47.69230769230769	-84.61538461538461	-27.69230769230769	-0.99	0.3154545454545454	-0.09591836734693879
267644.0124511719	-6.240963855421687	0.1204819277108434	7.819277108433735	4052.747252747252	354.333498688966	67.69230769230768	-72.30769230769231	-6.153846153846153	-0.9872727272727273	0.3072727272727273	-0.0989795918367347
267663.5437011719	-6.253012048192772	0.108433734939759	7.807228915662651	4026.373626373626	354.333498688966	75.38461538461537	-83.07692307692307	-15.38461538461538	-0.9881818181818182	0.3090909090909091	-0.1010204081632653
267683.0749511719	-6.253012048192772	0.1204819277108434	7.795180722891566	4055.677655677655	354.5219271811961	72.30769230769231	-41.53846153846153	7.692307692307692	-0.9881818181818182	0.3172727272727273	-0.0989795918367347
267702.6062011719	-6.253012048192772	0.1204819277108434	7.819277108433735	4049.81684981685	354.7105561861521	69.23076923076923	-59.99999999999999	-24.61538461538461	-0.9872727272727273	0.3081818181818182	-0.09591836734693879
267722.1374511719	-6.265060240963856	0.1204819277108434	7.795180722891566	4043.956043956044	354.8993860240621	66.15384615384615	-46.15384615384615	-4.615384615384615	-0.9854545454545455	0.3236363636363636	-0.1010204081632653
267741.6687011719	-6.240963855421687	0.108433734939759	7.819277108433735	4054.212454212454	355.0884170158369	63.07692307692307	-66.15384615384615	16.92307692307692	-0.9790909090909091	0.3218181818181818	-0.09693877551020409
267761.1999511719	-6.253012048192772	0.0963855421686747	7.819277108433735	4054.212454212454	355.277649483071	78.46153846153845	-70.76923076923076	1.538461538461538	-0.9836363636363636	0.3118181818181818	-0.09591836734693879
267780.7312011719	-6.253012048192772	0.108433734939759	7.807228915662651	4054.212454212454	355.6567201337269	70.76923076923076	-55.38461538461538	3.076923076923077	-0.98	0.32	-0.0979591836734694
267800.2624511719	-6.265060240963856	0.108433734939759	7.819277108433735	4054.212454212454	355.6567201337269	76.92307692307692	-52.30769230769231	-12.30769230769231	-0.9890909090909091	0.3063636363636363	-0.1010204081632653
267819.7937011719	-6.253012048192772	0.108433734939759	7.795180722891566	4042.490842490842	355.8465589637748	67.69230769230768	-59.99999999999999	-18.46153846153846	-0.9863636363636363	0.3072727272727273	-0.1020408163265306
267839.3249511719	-6.240963855421687	0.108433734939759	7.807228915662651	4046.886446886447	356.0366005625378	78.46153846153845	-89.23076923076923	-9.23076923076923	-0.9818181818181818	0.3154545454545454	-0.09489795918367348
267858.8562011719	-6.265060240963856	0.108433734939759	7.795180722891566	4049.81684981685	356.4172933670742	59.99999999999999	-72.30769230769231	-4.615384615384615	-0.9881818181818182	0.3027272727272727	-0.1010204081632653
267878.3874511719	-6.240963855421687	0.1204819277108434	7.807228915662651	4043.956043956044	356.4172933670742	73.84615384615384	-72.30769230769231	-20	-0.9890909090909091	0.3090909090909091	-0.1
267897.9187011719	-6.265060240963856	0.108433734939759	7.819277108433735	4058.608058608058	356.7988011560282	72.30769230769231	-69.23076923076923	-15.38461538461538	-0.9854545454545455	0.3136363636363637	-0.09693877551020409
267917.4499511719	-6.253012048192772	0.0963855421686747	7.807228915662651	4052.747252747252	356.9898614879338	70.76923076923076	-55.38461538461538	-4.615384615384615	-0.99	0.31	-0.0979591836734694
267936.9812011719	-6.265060240963856	0.1325301204819277	7.795180722891566	4064.468864468864	357.3725966692874	66.15384615384615	-53.84615384615384	-24.61538461538461	-0.9836363636363636	0.3227272727272728	-0.09693877551020409
267956.5124511719	-6.265060240963856	0.108433734939759	7.807228915662651	4039.560439560439	357.5642721779239	83.07692307692307	-69.23076923076923	-10.76923076923077	-0.9881818181818182	0.3163636363636364	-0.09489795918367348
267976.0437011719	-6.265060240963856	0.1325301204819277	7.807228915662651	4035.164835164835	357.5642721779239	55.38461538461538	-83.07692307692307	-9.23076923076923	-0.9818181818181818	0.3163636363636364	-0.0989795918367347
267995.5749511719	-6.253012048192772	0.108433734939759	7.795180722891566	4058.608058608058	357.7561534058386	64.61538461538461	-80	-23.07692307692307	-0.9827272727272727	0.3245454545454545	-0.1010204081632653
268015.1062011719	-6.253012048192772	0.1204819277108434	7.807228915662651	4046.886446886447	358.1405343456772	70.76923076923076	-70.76923076923076	-36.92307692307692	-0.9881818181818182	0.3081818181818182	-0.1010204081632653
268034.6374511719	-6.253012048192772	0.1325301204819277	7.807228915662651	4043.956043956044	358.1405343456772	40	-81.53846153846153	-21.53846153846154	-0.9836363636363636	0.3136363636363637	-0.1
268054.1687011719	-6.240963855421687	0.1204819277108434	7.807228915662651	4046.886446886447	358.5257421482863	59.99999999999999	-83.07692307692307	-35.38461538461538	-0.9818181818181818	0.3190909090909091	-0.1020408163265306
268073.6999511719	-6.27710843373494	0.0963855421686747	7.795180722891566	4057.142857142857	358.7186569573483	66.15384615384615	-86.15384615384615	-18.46153846153846	-0.9863636363636363	0.3063636363636363	-0.0989795918367347
268093.2312011719	-6.228915662650603	0.1325301204819277	7.819277108433735	4051.282051282051	359.1051100657162	76.92307692307692	-72.30769230769231	-29.23076923076923	-0.9818181818181818	0.3181818181818182	-0.1
268112.7624511719	-6.240963855421687	0.08433734939759037	7.83132530120482	4057.142857142857	359.1051100657162	86.15384615384615	-63.07692307692307	-18.46153846153846	-0.9872727272727273	0.3181818181818182	-0.09693877551020409
268132.2937011719	-6.253012048192772	0.1204819277108434	7.795180722891566	4035.164835164835	359.1051100657162	69.23076923076923	-46.15384615384615	1.538461538461538	-0.9872727272727273	0.3063636363636363	-0.0979591836734694
268151.8249511719	-6.289156626506024	0.1204819277108434	7.795180722891566	4063.003663003663	359.6863534997482	69.23076923076923	-16.92307692307692	-24.61538461538461	-0.9818181818181818	0.3181818181818182	-0.1
268171.3562011719	-6.27710843373494	0.1325301204819277	7.795180722891566	4045.421245421245	359.6863534997482	41.53846153846153	-73.84615384615384	-30.76923076923077	-0.9863636363636363	0.3172727272727273	-0.0979591836734694
268190.8874511719	-6.27710843373494	0.108433734939759	7.819277108433735	4039.560439560439	359.8805196674704	35.38461538461538	-87.69230769230768	-58.46153846153845	-0.9818181818181818	0.31	-0.0989795918367347
268210.4187011719	-6.228915662650603	0.1204819277108434	7.819277108433735	4054.212454212454	360.0748955782803	64.61538461538461	-98.46153846153845	-52.30769230769231	-0.9827272727272727	0.32	-0.0989795918367347
268229.9499511719	-6.240963855421687	0.108433734939759	7.819277108433735	4052.747252747252	360.4642779900511	75.38461538461537	-104.6153846153846	-43.07692307692307	-0.9845454545454545	0.3072727272727273	-0.1
268249.4812011719	-6.240963855421687	0.108433734939759	7.819277108433735	4064.468864468864	360.6592851732968	52.30769230769231	-66.15384615384615	-27.69230769230769	-0.980909090909091	0.3090909090909091	-0.1020408163265306
268269.0124511719	-6.27710843373494	0.1204819277108434	7.819277108433735	4051.282051282051	360.8545034642032	69.23076923076923	-69.23076923076923	-12.30769230769231	-0.9836363636363636	0.3172727272727273	-0.0989795918367347
268288.5437011719	-6.265060240963856	0.1204819277108434	7.819277108433735	4036.630036630037	360.8545034642032	52.30769230769231	-75.38461538461537	-15.38461538461538	-0.9827272727272727	0.3245454545454545	-0.1
268308.0749511719	-6.253012048192772	0.108433734939759	7.807228915662651	4046.886446886447	361.2455747417094	72.30769230769231	-84.61538461538461	-21.53846153846154	-0.980909090909091	0.3072727272727273	-0.0979591836734694
268327.6062011719	-6.253012048192772	0.1204819277108434	7.807228915662651	4055.677655677655	361.4414284165251	66.15384615384615	-90.76923076923076	-26.15384615384615	-0.9818181818181818	0.3136363636363637	-0.09591836734693879
268347.1374511719	-6.240963855421687	0.1204819277108434	7.807228915662651	4045.421245421245	361.4414284165251	69.23076923076923	-73.84615384615384	-49.23076923076923	-0.9863636363636363	0.3063636363636363	-0.1020408163265306
268366.6687011719	-6.240963855421687	0.1204819277108434	7.83132530120482	4055.677655677655	361.6374945754376	64.61538461538461	-69.23076923076923	-16.92307692307692	-0.9845454545454545	0.3190909090909091	-0.1010204081632653
268386.1999511719	-6.240963855421687	0.1204819277108434	7.807228915662651	4054.212454212454	361.8337735644245	58.46153846153845	-61.53846153846153	-23.07692307692307	-0.9872727272727273	0.31	-0.09693877551020409
268405.7312011719	-6.228915662650603	0.108433734939759	7.819277108433735	4049.81684981685	362.0302657302151	69.23076923076923	-78.46153846153845	-15.38461538461538	-0.98	0.3190909090909091	-0.0989795918367347
268425.2624511719	-6.265060240963856	0.108433734939759	7.807228915662651	4030.769230769231	362.4238909828936	72.30769230769231	-41.53846153846153	-38.46153846153846	-0.9818181818181818	0.3227272727272728	-0.09693877551020409
268444.7937011719	-6.253012048192772	0.1325301204819277	7.795180722891566	4033.699633699634	362.4238909828936	58.46153846153845	-73.84615384615384	-18.46153846153846	-0.9863636363636363	0.3145454545454546	-0.0989795918367347
268464.3249511719	-6.265060240963856	0.108433734939759	7.819277108433735	4054.212454212454	362.621024767016	36.92307692307692	-81.53846153846153	-27.69230769230769	-0.9772727272727273	0.3245454545454545	-0.0989795918367347
268483.8562011719	-6.228915662650603	0.108433734939759	7.819277108433735	4046.886446886447	362.8183731224149	76.92307692307692	-43.07692307692307	-23.07692307692307	-0.980909090909091	0.3172727272727273	-0.1
268503.3874511719	-6.253012048192772	0.108433734939759	7.807228915662651	4043.956043956044	362.8183731224149	61.53846153846153	-76.92307692307692	0	-0.9836363636363636	0.3054545454545455	-0.1
268522.9187011719	-6.27710843373494	0.108433734939759	7.795180722891566	4057.142857142857	363.015936399608	55.38461538461538	-52.30769230769231	-27.69230769230769	-0.98	0.3081818181818182	-0.1
268542.4499511719	-6.253012048192772	0.108433734939759	7.819277108433735	4043.956043956044	363.2137149498764	49.23076923076923	-66.15384615384615	-18.46153846153846	-0.9854545454545455	0.3109090909090909	-0.09285714285714286
268561.9812011719	-6.240963855421687	0.108433734939759	7.807228915662651	4063.003663003663	363.6099192785979	56.92307692307692	-69.23076923076923	-21.53846153846154	-0.9854545454545455	0.3127272727272727	-0.1030612244897959
268581.5124511719	-6.240963855421687	0.108433734939759	7.807228915662651	4051.282051282051	363.6099192785979	55.38461538461538	-103.0769230769231	-27.69230769230769	-0.9818181818181818	0.3154545454545454	-0.0979591836734694
268601.0437011719	-6.228915662650603	0.1204819277108434	7.807228915662651	4035.164835164835	363.6099192785979	76.92307692307692	-93.84615384615384	-43.07692307692307	-0.99	0.3118181818181818	-0.0979591836734694
268620.5749511719	-6.253012048192772	0.1445783132530121	7.795180722891566	4054.212454212454	363.8083457634518	87.69230769230768	-53.84615384615384	-24.61538461538461	-0.9818181818181818	0.3063636363636363	-0.1
268640.1062011719	-6.265060240963856	0.1204819277108434	7.807228915662651	4046.886446886447	364.0069889341875	52.30769230769231	-52.30769230769231	-40	-0.9827272727272727	0.3145454545454546	-0.0979591836734694
268659.6374511719	-6.240963855421687	0.1325301204819277	7.819277108433735	4043.956043956044	364.0069889341875	55.38461538461538	-44.61538461538461	4.615384615384615	-0.9863636363636363	0.3145454545454546	-0.1020408163265306
268679.1687011719	-6.253012048192772	0.108433734939759	7.795180722891566	4051.282051282051	364.2058491459372	67.69230769230768	-56.92307692307692	-16.92307692307692	-0.98	0.3054545454545455	-0.0989795918367347
268698.6999511719	-6.265060240963856	0.108433734939759	7.795180722891566	4043.956043956044	364.4049267546097	63.07692307692307	-56.92307692307692	-35.38461538461538	-0.9854545454545455	0.3190909090909091	-0.09591836734693879
268718.2312011719	-6.27710843373494	0.1204819277108434	7.807228915662651	4049.81684981685	364.6042221168921	63.07692307692307	-90.76923076923076	-32.30769230769231	-0.9827272727272727	0.3063636363636363	-0.1
268737.7624511719	-6.240963855421687	0.0963855421686747	7.819277108433735	4055.677655677655	364.6042221168921	47.69230769230769	-89.23076923076923	-29.23076923076923	-0.98	0.3063636363636363	-0.1010204081632653
268757.2937011719	-6.253012048192772	0.0963855421686747	7.819277108433735	4038.095238095238	364.6042221168921	52.30769230769231	-63.07692307692307	-47.69230769230769	-0.980909090909091	0.3245454545454545	-0.0989795918367347
268776.8249511719	-6.265060240963856	0.108433734939759	7.795180722891566	4051.282051282051	364.8037355902524	70.76923076923076	-58.46153846153845	-41.53846153846153	-0.9863636363636363	0.3072727272727273	-0.0989795918367347
268796.3562011719	-6.27710843373494	0.0963855421686747	7.795180722891566	4032.234432234432	365.0034675329416	55.38461538461538	-83.07692307692307	-44.61538461538461	-0.9854545454545455	0.3254545454545454	-0.1010204081632653
268815.8874511719	-6.240963855421687	0.1204819277108434	7.819277108433735	4045.421245421245	365.0034675329416	59.99999999999999	-80	-16.92307692307692	-0.9854545454545455	0.3090909090909091	-0.0979591836734694
268835.4187011719	-6.216867469879518	0.08433734939759037	7.819277108433735	4054.212454212454	365.2034183039953	70.76923076923076	-66.15384615384615	6.153846153846153	-0.9772727272727273	0.3272727272727273	-0.09591836734693879
268854.9499511719	-6.253012048192772	0.1325301204819277	7.795180722891566	4039.560439560439	365.2034183039953	43.07692307692307	-20	-9.23076923076923	-0.9754545454545455	0.3227272727272728	-0.09693877551020409
268874.4812011719	-6.265060240963856	0.1325301204819277	7.819277108433735	4057.142857142857	365.4035882632368	41.53846153846153	-61.53846153846153	-18.46153846153846	-0.98	0.3236363636363636	-0.1
268894.0124511719	-6.253012048192772	0.108433734939759	7.795180722891566	4042.490842490842	365.6039777712782	29.23076923076923	-53.84615384615384	-47.69230769230769	-0.9818181818181818	0.3081818181818182	-0.1010204081632653
268913.5437011719	-6.301204819277109	0.0963855421686747	7.807228915662651	4027.838827838828	365.6039777712782	30.76923076923077	-72.30769230769231	-64.61538461538461	-0.9845454545454545	0.3190909090909091	-0.09693877551020409
268933.0749511719	-6.253012048192772	0.08433734939759037	7.807228915662651	4019.047619047619	365.6039777712782	35.38461538461538	-93.84615384615384	-50.76923076923077	-0.9854545454545455	0.3236363636363636	-0.0989795918367347
268952.6062011719	-6.228915662650603	0.0963855421686747	7.819277108433735	4051.282051282051	366.0054168801698	53.84615384615384	-63.07692307692307	-12.30769230769231	-0.980909090909091	0.3127272727272727	-0.1010204081632653
268972.1374511719	-6.228915662650603	0.108433734939759	7.819277108433735	4048.351648351648	366.0054168801698	55.38461538461538	-43.07692307692307	-9.23076923076923	-0.9881818181818182	0.3081818181818182	-0.09693877551020409
268991.6687011719	-6.289156626506024	0.108433734939759	7.795180722891566	4054.212454212454	366.2064672062109	80	-40	-21.53846153846154	-0.9845454545454545	0.3127272727272727	-0.09693877551020409
269011.1999511719	-6.27710843373494	0.1204819277108434	7.795180722891566	4048.351648351648	366.4077385314377	55.38461538461538	-89.23076923076923	-30.76923076923077	-0.9854545454545455	0.3218181818181818	-0.1010204081632653
269030.7312011719	-6.265060240963856	0.108433734939759	7.795180722891566	4052.747252747252	366.4077385314377	40	-99.99999999999999	-52.30769230769231	-0.9863636363636363	0.3063636363636363	-0.0979591836734694
269050.2624511719	-6.216867469879518	0.0963855421686747	7.807228915662651	4057.142857142857	366.6092312204421	49.23076923076923	-86.15384615384615	-35.38461538461538	-0.98	0.3090909090909091	-0.0989795918367347
269069.7937011719	-6.265060240963856	0.0963855421686747	7.819277108433735	4042.490842490842	366.6092312204421	50.76923076923077	-66.15384615384615	-33.84615384615384	-0.9872727272727273	0.3181818181818182	-0.1
269089.3249511719	-6.253012048192772	0.0963855421686747	7.807228915662651	4058.608058608058	367.0128821521635	56.92307692307692	-49.23076923076923	-13.84615384615385	-0.9872727272727273	0.3063636363636363	-0.1030612244897959
269108.8562011719	-6.265060240963856	0.08433734939759037	7.819277108433735	4052.747252747252	367.0128821521635	63.07692307692307	-44.61538461538461	-12.30769230769231	-0.9781818181818182	0.3154545454545454	-0.0989795918367347
269128.3874511719	-6.265060240963856	0.1204819277108434	7.795180722891566	4045.421245421245	367.0128821521635	59.99999999999999	-56.92307692307692	-20	-0.9863636363636363	0.3154545454545454	-0.09489795918367348
269147.9187011719	-6.253012048192772	0.108433734939759	7.807228915662651	4052.747252747252	367.2150411280846	41.53846153846153	-59.99999999999999	-29.23076923076923	-0.9836363636363636	0.31	-0.1020408163265306
269167.4499511719	-6.265060240963856	0.0963855421686747	7.807228915662651	4038.095238095238	367.4174229341955	47.69230769230769	-50.76923076923077	-12.30769230769231	-0.9772727272727273	0.3163636363636364	-0.0979591836734694
269186.9812011719	-6.253012048192772	0.0963855421686747	7.807228915662651	4023.443223443223	367.4174229341955	53.84615384615384	-90.76923076923076	-6.153846153846153	-0.9890909090909091	0.3054545454545455	-0.1010204081632653
269206.5124511719	-6.265060240963856	0.1204819277108434	7.807228915662651	4055.677655677655	367.6200279391221	61.53846153846153	-70.76923076923076	-18.46153846153846	-0.9863636363636363	0.3081818181818182	-0.1020408163265306
269226.0437011719	-6.253012048192772	0.1204819277108434	7.819277108433735	4032.234432234432	367.6200279391221	59.99999999999999	-75.38461538461537	-9.23076923076923	-0.9872727272727273	0.3163636363636364	-0.0979591836734694
269245.5749511719	-6.265060240963856	0.108433734939759	7.807228915662651	4017.582417582417	367.6200279391221	56.92307692307692	-66.15384615384615	-9.23076923076923	-0.9818181818181818	0.3109090909090909	-0.0979591836734694
269265.1062011719	-6.253012048192772	0.0963855421686747	7.819277108433735	4048.351648351648	368.0259090239953	58.46153846153845	-70.76923076923076	-15.38461538461538	-0.9836363636363636	0.3227272727272728	-0.09693877551020409
269284.6374511719	-6.265060240963856	0.1204819277108434	7.807228915662651	4048.351648351648	368.0259090239953	59.99999999999999	-89.23076923076923	-30.76923076923077	-0.9881818181818182	0.3163636363636364	-0.0979591836734694
269304.1687011719	-6.240963855421687	0.1204819277108434	7.807228915662651	4051.282051282051	368.2291858452701	58.46153846153845	-96.92307692307692	-21.53846153846154	-0.9881818181818182	0.3136363636363637	-0.1020408163265306
269323.6999511719	-6.265060240963856	0.0963855421686747	7.819277108433735	4052.747252747252	368.2291858452701	50.76923076923077	-41.53846153846153	-21.53846153846154	-0.980909090909091	0.3163636363636364	-0.0989795918367347
269343.2312011719	-6.240963855421687	0.108433734939759	7.795180722891566	4049.81684981685	368.4326873480216	50.76923076923077	-75.38461538461537	-23.07692307692307	-0.99	0.3172727272727273	-0.0989795918367347
269362.7624511719	-6.253012048192772	0.108433734939759	7.819277108433735	4054.212454212454	368.4326873480216	63.07692307692307	-55.38461538461538	-26.15384615384615	-0.9836363636363636	0.3181818181818182	-0.1
269382.2937011719	-6.253012048192772	0.108433734939759	7.807228915662651	4042.490842490842	368.6364139049655	49.23076923076923	-78.46153846153845	-1.538461538461538	-0.9818181818181818	0.3245454545454545	-0.1010204081632653
269401.8249511719	-6.265060240963856	0.0963855421686747	7.807228915662651	4024.908424908424	368.4326873480216	72.30769230769231	-67.69230769230768	-38.46153846153846	-0.9863636363636363	0.3036363636363637	-0.1010204081632653
269421.3562011719	-6.253012048192772	0.0963855421686747	7.819277108433735	4051.282051282051	368.840365889643	72.30769230769231	-92.30769230769229	-35.38461538461538	-0.9790909090909091	0.3163636363636364	-0.09591836734693879
269440.8874511719	-6.240963855421687	0.108433734939759	7.819277108433735	4057.142857142857	368.840365889643	80	-63.07692307692307	-32.30769230769231	-0.9854545454545455	0.3145454545454546	-0.0979591836734694
269460.4187011719	-6.265060240963856	0.1204819277108434	7.807228915662651	4045.421245421245	369.0445436764218	90.76923076923076	-76.92307692307692	-50.76923076923077	-0.9845454545454545	0.3236363636363636	-0.09489795918367348
269479.9499511719	-6.265060240963856	0.1204819277108434	7.819277108433735	4033.699633699634	369.2489476404992	64.61538461538461	-98.46153846153845	-21.53846153846154	-0.980909090909091	0.3172727272727273	-0.1040816326530612
269499.4812011719	-6.240963855421687	0.108433734939759	7.819277108433735	4055.677655677655	369.2489476404992	72.30769230769231	-93.84615384615384	-4.615384615384615	-0.9872727272727273	0.3172727272727273	-0.1010204081632653
269519.0124511719	-6.253012048192772	0.07228915662650604	7.819277108433735	4051.282051282051	369.4535781579045	63.07692307692307	-69.23076923076923	4.615384615384615	-0.980909090909091	0.3163636363636364	-0.1030612244897959
269538.5437011719	-6.253012048192772	0.1204819277108434	7.783132530120482	4030.769230769231	369.4535781579045	103.0769230769231	-38.46153846153846	1.538461538461538	-0.9818181818181818	0.3272727272727273	-0.09591836734693879
269558.0749511719	-6.301204819277109	0.108433734939759	7.795180722891566	4016.117216117216	369.4535781579045	56.92307692307692	-69.23076923076923	-36.92307692307692	-0.98	0.3163636363636364	-0.09693877551020409
269577.6062011719	-6.240963855421687	0.1204819277108434	7.807228915662651	4042.490842490842	369.8635203609867	59.99999999999999	-73.84615384615384	-50.76923076923077	-0.9763636363636363	0.3272727272727273	-0.1
269597.1374511719	-6.253012048192772	0.108433734939759	7.819277108433735	4051.282051282051	369.8635203609867	55.38461538461538	-72.30769230769231	-36.92307692307692	-0.9827272727272727	0.33	-0.09387755102040818
269616.6687011719	-6.228915662650603	0.08433734939759037	7.807228915662651	4049.81684981685	369.8635203609867	49.23076923076923	-87.69230769230768	-23.07692307692307	-0.9745454545454545	0.3263636363636364	-0.0979591836734694
269636.1999511719	-6.253012048192772	0.08433734939759037	7.795180722891566	4046.886446886447	370.0688328029013	64.61538461538461	-56.92307692307692	-12.30769230769231	-0.9790909090909091	0.3163636363636364	-0.09489795918367348
269655.7312011719	-6.253012048192772	0.08433734939759037	7.807228915662651	4063.003663003663	370.4801422643746	72.30769230769231	-63.07692307692307	-26.15384615384615	-0.9872727272727273	0.3136363636363637	-0.09693877551020409
269675.2624511719	-6.265060240963856	0.108433734939759	7.783132530120482	4054.212454212454	370.2743733106231	69.23076923076923	-78.46153846153845	-30.76923076923077	-0.9890909090909091	0.3063636363636363	-0.0979591836734694
269694.7937011719	-6.253012048192772	0.0963855421686747	7.795180722891566	4043.956043956044	370.4801422643746	55.38461538461538	-93.84615384615384	-29.23076923076923	-0.98	0.3163636363636364	-0.1020408163265306
269714.3249511719	-6.253012048192772	0.108433734939759	7.807228915662651	4055.677655677655	370.6861400452237	61.53846153846153	-98.46153846153845	-52.30769230769231	-0.98	0.3309090909090909	-0.09693877551020409
269733.8562011719	-6.228915662650603	0.108433734939759	7.819277108433735	4049.81684981685	370.6861400452237	47.69230769230769	-92.30769230769229	-58.46153846153845	-0.9818181818181818	0.3063636363636363	-0.1030612244897959
269753.3874511719	-6.228915662650603	0.108433734939759	7.819277108433735	4052.747252747252	370.6861400452237	49.23076923076923	-73.84615384615384	-35.38461538461538	-0.9854545454545455	0.3172727272727273	-0.1
269772.9187011719	-6.265060240963856	0.0963855421686747	7.819277108433735	4042.490842490842	370.8923670350864	81.53846153846153	-56.92307692307692	-9.23076923076923	-0.9845454545454545	0.3154545454545454	-0.0989795918367347
269792.4499511719	-6.27710843373494	0.08433734939759037	7.795180722891566	4046.886446886447	371.0988236167291	87.69230769230768	-70.76923076923076	-12.30769230769231	-0.9790909090909091	0.3118181818181818	-0.1010204081632653
269811.9812011719	-6.228915662650603	0.0963855421686747	7.807228915662651	4052.747252747252	371.3055101737709	75.38461538461537	-92.30769230769229	-32.30769230769231	-0.9845454545454545	0.32	-0.09693877551020409
269831.5124511719	-6.253012048192772	0.0963855421686747	7.795180722891566	4039.560439560439	371.0988236167291	76.92307692307692	-80	-16.92307692307692	-0.9863636363636363	0.3054545454545455	-0.1010204081632653
269851.0437011719	-6.265060240963856	0.0963855421686747	7.807228915662651	4043.956043956044	371.3055101737709	80	-69.23076923076923	-36.92307692307692	-0.980909090909091	0.3172727272727273	-0.09591836734693879
269870.5749511719	-6.240963855421687	0.1204819277108434	7.819277108433735	4054.212454212454	371.5124270906862	69.23076923076923	-98.46153846153845	-16.92307692307692	-0.9890909090909091	0.3118181818181818	-0.09693877551020409
269890.1062011719	-6.253012048192772	0.0963855421686747	7.807228915662651	4054.212454212454	371.5124270906862	78.46153846153845	-81.53846153846153	-41.53846153846153	-0.9836363636363636	0.3054545454545455	-0.1010204081632653
269909.6374511719	-6.253012048192772	0.1204819277108434	7.83132530120482	4060.07326007326	371.7195747528065	84.61538461538461	-73.84615384615384	-3.076923076923077	-0.9854545454545455	0.3181818181818182	-0.1020408163265306
269929.1687011719	-6.265060240963856	0.1204819277108434	7.807228915662651	4051.282051282051	371.9269535463236	72.30769230769231	-58.46153846153845	-13.84615384615385	-0.9818181818181818	0.3309090909090909	-0.09693877551020409
269948.6999511719	-6.265060240963856	0.0963855421686747	7.795180722891566	4036.630036630037	371.9269535463236	66.15384615384615	-80	-32.30769230769231	-0.98	0.31	-0.1020408163265306
269968.2312011719	-6.253012048192772	0.1204819277108434	7.819277108433735	4064.468864468864	372.1345638582912	81.53846153846153	-106.1538461538462	-10.76923076923077	-0.9836363636363636	0.3172727272727273	-0.1
269987.7624511719	-6.240963855421687	0.1204819277108434	7.819277108433735	4052.747252747252	372.3424060766281	72.30769230769231	-92.30769230769229	-20	-0.9836363636363636	0.3136363636363637	-0.09693877551020409
270007.2937011719	-6.253012048192772	0.108433734939759	7.807228915662651	4036.630036630037	372.3424060766281	73.84615384615384	-70.76923076923076	-30.76923076923077	-0.980909090909091	0.32	-0.1010204081632653
270026.8249511719	-6.27710843373494	0.108433734939759	7.807228915662651	4057.142857142857	372.55048059012	92.30769230769229	-73.84615384615384	-18.46153846153846	-0.9827272727272727	0.3163636363636364	-0.1030612244897959
270046.3562011719	-6.265060240963856	0.1204819277108434	7.807228915662651	4042.490842490842	372.55048059012	96.92307692307692	-58.46153846153845	-9.23076923076923	-0.9827272727272727	0.3090909090909091	-0.1010204081632653
270065.8874511719	-6.240963855421687	0.1204819277108434	7.807228915662651	4054.212454212454	372.55048059012	80	-81.53846153846153	-29.23076923076923	-0.9781818181818182	0.3245454545454545	-0.1020408163265306
270085.4187011719	-6.240963855421687	0.08433734939759037	7.819277108433735	4051.282051282051	372.758787788422	76.92307692307692	-87.69230769230768	-20	-0.9845454545454545	0.3136363636363637	-0.09591836734693879
270104.9499511719	-6.265060240963856	0.108433734939759	7.807228915662651	4039.560439560439	372.758787788422	75.38461538461537	-78.46153846153845	4.615384615384615	-0.9827272727272727	0.3081818181818182	-0.0979591836734694
270124.4812011719	-6.253012048192772	0.1325301204819277	7.819277108433735	4055.677655677655	372.9673280620617	75.38461538461537	-50.76923076923077	-16.92307692307692	-0.9845454545454545	0.3181818181818182	-0.1020408163265306
270144.0124511719	-6.240963855421687	0.1204819277108434	7.83132530120482	4046.886446886447	373.1761018024405	80	-75.38461538461537	-26.15384615384615	-0.9772727272727273	0.3318181818181819	-0.09591836734693879
270163.5437011719	-6.265060240963856	0.108433734939759	7.795180722891566	4030.769230769231	372.9673280620617	80	-84.61538461538461	-7.692307692307692	-0.98	0.3063636363636363	-0.1020408163265306
270183.0749511719	-6.265060240963856	0.1325301204819277	7.807228915662651	4029.304029304029	373.1761018024405	99.99999999999999	-89.23076923076923	-16.92307692307692	-0.980909090909091	0.3190909090909091	-0.0989795918367347
270202.6062011719	-6.240963855421687	0.1204819277108434	7.819277108433735	4043.956043956044	373.385109401837	95.38461538461537	-95.38461538461537	-38.46153846153846	-0.9872727272727273	0.3127272727272727	-0.0979591836734694
270222.1374511719	-6.228915662650603	0.0963855421686747	7.83132530120482	4055.677655677655	373.385109401837	78.46153846153845	-78.46153846153845	-12.30769230769231	-0.9827272727272727	0.3136363636363637	-0.1010204081632653
270241.6687011719	-6.240963855421687	0.1204819277108434	7.807228915662651	4058.608058608058	373.594351253409	96.92307692307692	-59.99999999999999	23.07692307692307	-0.9818181818181818	0.3136363636363637	-0.1010204081632653
270261.1999511719	-6.265060240963856	0.1325301204819277	7.795180722891566	4038.095238095238	373.594351253409	93.84615384615384	-27.69230769230769	0	-0.9845454545454545	0.3109090909090909	-0.0979591836734694
270280.7312011719	-6.27710843373494	0.108433734939759	7.819277108433735	4029.304029304029	373.594351253409	66.15384615384615	-50.76923076923077	-32.30769230769231	-0.980909090909091	0.3145454545454546	-0.1010204081632653
270300.2624511719	-6.253012048192772	0.108433734939759	7.807228915662651	4051.282051282051	373.8038277511961	67.69230769230768	-53.84615384615384	-56.92307692307692	-0.9863636363636363	0.3136363636363637	-0.09285714285714286
270319.7937011719	-6.240963855421687	0.108433734939759	7.819277108433735	4035.164835164835	373.8038277511961	63.07692307692307	-103.0769230769231	-24.61538461538461	-0.9881818181818182	0.3136363636363637	-0.1020408163265306
270339.3249511719	-6.204819277108434	0.0963855421686747	7.819277108433735	4051.282051282051	374.0135392901223	73.84615384615384	-98.46153846153845	-23.07692307692307	-0.980909090909091	0.3145454545454546	-0.1
270358.8562011719	-6.240963855421687	0.1445783132530121	7.807228915662651	4046.886446886447	374.2234862659981	78.46153846153845	-63.07692307692307	-16.92307692307692	-0.9863636363636363	0.3127272727272727	-0.09693877551020409
270378.3874511719	-6.27710843373494	0.1325301204819277	7.807228915662651	4051.282051282051	374.2234862659981	64.61538461538461	-50.76923076923077	-40	-0.9872727272727273	0.3145454545454546	-0.1020408163265306
270397.9187011719	-6.253012048192772	0.1204819277108434	7.819277108433735	4057.142857142857	374.4336690755233	84.61538461538461	-69.23076923076923	-29.23076923076923	-0.9818181818181818	0.3145454545454546	-0.09693877551020409
270417.4499511719	-6.228915662650603	0.1204819277108434	7.819277108433735	4032.234432234432	374.4336690755233	70.76923076923076	-112.3076923076923	-36.92307692307692	-0.9863636363636363	0.3127272727272727	-0.09693877551020409
270436.9812011719	-6.216867469879518	0.1204819277108434	7.819277108433735	4051.282051282051	374.6440881162895	80	-103.0769230769231	-24.61538461538461	-0.9836363636363636	0.3054545454545455	-0.0989795918367347
270456.5124511719	-6.265060240963856	0.1204819277108434	7.819277108433735	4051.282051282051	374.6440881162895	61.53846153846153	-80	-27.69230769230769	-0.9845454545454545	0.3190909090909091	-0.1020408163265306
270476.0437011719	-6.265060240963856	0.1204819277108434	7.83132530120482	4033.699633699634	374.6440881162895	59.99999999999999	-64.61538461538461	-15.38461538461538	-0.9890909090909091	0.3136363636363637	-0.1
270495.5749511719	-6.27710843373494	0.108433734939759	7.807228915662651	4021.978021978022	374.8547437867827	78.46153846153845	-53.84615384615384	3.076923076923077	-0.9827272727272727	0.3127272727272727	-0.0979591836734694
270515.1062011719	-6.253012048192772	0.1325301204819277	7.819277108433735	4043.956043956044	375.0656364863851	93.84615384615384	-73.84615384615384	-27.69230769230769	-0.9854545454545455	0.3163636363636364	-0.09591836734693879
270534.6374511719	-6.204819277108434	0.1204819277108434	7.819277108433735	4054.212454212454	375.0656364863851	67.69230769230768	-87.69230769230768	-6.153846153846153	-0.9845454545454545	0.3063636363636363	-0.1010204081632653
270554.1687011719	-6.240963855421687	0.1204819277108434	7.819277108433735	4057.142857142857	375.2767666153789	64.61538461538461	-56.92307692307692	-18.46153846153846	-0.9827272727272727	0.3145454545454546	-0.1
270573.6999511719	-6.253012048192772	0.1204819277108434	7.843373493975904	4029.304029304029	375.4881345749475	58.46153846153845	-59.99999999999999	-6.153846153846153	-0.980909090909091	0.3118181818181818	-0.09489795918367348
270593.2312011719	-6.240963855421687	0.108433734939759	7.807228915662651	4060.07326007326	375.4881345749475	63.07692307692307	-49.23076923076923	-6.153846153846153	-0.98	0.3163636363636364	-0.1030612244897959
270612.7624511719	-6.240963855421687	0.1325301204819277	7.819277108433735	4054.212454212454	375.4881345749475	44.61538461538461	-59.99999999999999	3.076923076923077	-0.980909090909091	0.3163636363636364	-0.1010204081632653
270632.2937011719	-6.253012048192772	0.1325301204819277	7.807228915662651	4039.560439560439	375.4881345749475	50.76923076923077	-89.23076923076923	-24.61538461538461	-0.9881818181818182	0.3136363636363637	-0.09591836734693879
270651.8249511719	-6.228915662650603	0.1325301204819277	7.807228915662651	4054.212454212454	375.6997407671789	41.53846153846153	-75.38461538461537	-21.53846153846154	-0.9818181818181818	0.3072727272727273	-0.1020408163265306
270671.3562011719	-6.240963855421687	0.1204819277108434	7.807228915662651	4054.212454212454	375.6997407671789	59.99999999999999	-83.07692307692307	-20	-0.9827272727272727	0.3145454545454546	-0.1010204081632653
270690.8874511719	-6.228915662650603	0.1204819277108434	7.819277108433735	4061.538461538461	375.9115855950681	61.53846153846153	-70.76923076923076	-9.23076923076923	-0.980909090909091	0.3227272727272728	-0.0979591836734694
270710.4187011719	-6.253012048192772	0.1325301204819277	7.819277108433735	4058.608058608058	375.9115855950681	43.07692307692307	-73.84615384615384	-18.46153846153846	-0.980909090909091	0.3081818181818182	-0.1010204081632653
270729.9499511719	-6.240963855421687	0.1325301204819277	7.83132530120482	4039.560439560439	376.1236694625192	58.46153846153845	-73.84615384615384	-35.38461538461538	-0.9872727272727273	0.3127272727272727	-0.09693877551020409
270749.4812011719	-6.253012048192772	0.1204819277108434	7.819277108433735	4041.025641025641	376.1236694625192	52.30769230769231	-81.53846153846153	-36.92307692307692	-0.9854545454545455	0.3063636363636363	-0.1
270769.0124511719	-6.240963855421687	0.108433734939759	7.819277108433735	4042.490842490842	376.3359927743489	49.23076923076923	-70.76923076923076	-23.07692307692307	-0.9818181818181818	0.3181818181818182	-0.09693877551020409
270788.5437011719	-6.253012048192772	0.1325301204819277	7.807228915662651	4042.490842490842	376.3359927743489	70.76923076923076	-69.23076923076923	-6.153846153846153	-0.9881818181818182	0.3163636363636364	-0.0989795918367347
270808.0749511719	-6.253012048192772	0.1204819277108434	7.83132530120482	4052.747252747252	376.5485559362879	67.69230769230768	-44.61538461538461	-27.69230769230769	-0.9872727272727273	0.3063636363636363	-0.09591836734693879
270827.6062011719	-6.27710843373494	0.108433734939759	7.795180722891566	4041.025641025641	376.5485559362879	59.99999999999999	-90.76923076923076	-27.69230769230769	-0.9836363636363636	0.3236363636363636	-0.0979591836734694
270847.1374511719	-6.228915662650603	0.1325301204819277	7.83132530120482	4064.468864468864	376.5485559362879	55.38461538461538	-98.46153846153845	-58.46153846153845	-0.99	0.3172727272727273	-0.0979591836734694
270866.6687011719	-6.228915662650603	0.1325301204819277	7.819277108433735	4055.677655677655	376.7613593549845	56.92307692307692	-87.69230769230768	-44.61538461538461	-0.980909090909091	0.3181818181818182	-0.1010204081632653
270886.1999511719	-6.240963855421687	0.1204819277108434	7.807228915662651	4041.025641025641	376.7613593549845	63.07692307692307	-86.15384615384615	-15.38461538461538	-0.9827272727272727	0.3181818181818182	-0.0989795918367347
270905.7312011719	-6.216867469879518	0.1204819277108434	7.83132530120482	4064.468864468864	376.9744034380066	63.07692307692307	-61.53846153846153	-29.23076923076923	-0.9863636363636363	0.3081818181818182	-0.0979591836734694
270925.2624511719	-6.265060240963856	0.0963855421686747	7.83132530120482	4051.282051282051	376.9744034380066	78.46153846153845	-55.38461538461538	-12.30769230769231	-0.980909090909091	0.3163636363636364	-0.0979591836734694
270944.7937011719	-6.253012048192772	0.1325301204819277	7.807228915662651	4036.630036630037	376.9744034380066	70.76923076923076	0	-4.615384615384615	-0.9863636363636363	0.3145454545454546	-0.0979591836734694
270964.3249511719	-6.265060240963856	0.1325301204819277	7.807228915662651	4052.747252747252	377.1876885938443	61.53846153846153	-58.46153846153845	-24.61538461538461	-0.980909090909091	0.31	-0.1
270983.8562011719	-6.240963855421687	0.1325301204819277	7.795180722891566	4032.234432234432	377.401215231913	41.53846153846153	-41.53846153846153	-27.69230769230769	-0.9827272727272727	0.3290909090909091	-0.0989795918367347
271003.3874511719	-6.265060240963856	0.0963855421686747	7.819277108433735	4041.025641025641	377.401215231913	26.15384615384615	-64.61538461538461	-40	-0.9872727272727273	0.3163636363636364	-0.09591836734693879
271022.9187011719	-6.216867469879518	0.108433734939759	7.819277108433735	4048.351648351648	377.6149837625557	70.76923076923076	-76.92307692307692	-27.69230769230769	-0.9854545454545455	0.3090909090909091	-0.1
271042.4499511719	-6.228915662650603	0.1204819277108434	7.807228915662651	4033.699633699634	377.6149837625557	73.84615384615384	-76.92307692307692	-18.46153846153846	-0.9845454545454545	0.3172727272727273	-0.0989795918367347
271061.9812011719	-6.240963855421687	0.1325301204819277	7.819277108433735	4054.212454212454	377.6149837625557	63.07692307692307	-78.46153846153845	-21.53846153846154	-0.9863636363636363	0.3154545454545454	-0.0989795918367347
271081.5124511719	-6.253012048192772	0.1325301204819277	7.819277108433735	4042.490842490842	377.6149837625557	59.99999999999999	-86.15384615384615	-27.69230769230769	-0.98	0.3127272727272727	-0.1030612244897959
271101.0437011719	-6.240963855421687	0.1204819277108434	7.83132530120482	4039.560439560439	377.8289945970454	67.69230769230768	-103.0769230769231	-41.53846153846153	-0.9818181818181818	0.3181818181818182	-0.1030612244897959
271120.5749511719	-6.228915662650603	0.1325301204819277	7.83132530120482	4055.677655677655	378.0432481475881	64.61538461538461	-86.15384615384615	-10.76923076923077	-0.9872727272727273	0.3090909090909091	-0.1
271140.1062011719	-6.253012048192772	0.108433734939759	7.795180722891566	4045.421245421245	378.0432481475881	73.84615384615384	-69.23076923076923	-21.53846153846154	-0.9827272727272727	0.3072727272727273	-0.1
271159.6374511719	-6.253012048192772	0.1445783132530121	7.819277108433735	4064.468864468864	378.0432481475881	73.84615384615384	-80	-32.30769230769231	-0.9872727272727273	0.3145454545454546	-0.09693877551020409
271179.1687011719	-6.240963855421687	0.108433734939759	7.807228915662651	4055.677655677655	378.2577448273253	78.46153846153845	-90.76923076923076	-40	-0.9863636363636363	0.3054545454545455	-0.1010204081632653
271198.6999511719	-6.228915662650603	0.1204819277108434	7.819277108433735	4030.769230769231	378.2577448273253	70.76923076923076	-78.46153846153845	-29.23076923076923	-0.9818181818181818	0.3218181818181818	-0.1010204081632653
271218.2312011719	-6.253012048192772	0.1204819277108434	7.843373493975904	4055.677655677655	378.4724850503368	49.23076923076923	-84.61538461538461	-26.15384615384615	-0.9836363636363636	0.3163636363636364	-0.0989795918367347
271237.7624511719	-6.240963855421687	0.1325301204819277	7.819277108433735	4046.886446886447	378.4724850503368	69.23076923076923	-72.30769230769231	-7.692307692307692	-0.9890909090909091	0.3054545454545455	-0.1
271257.2937011719	-6.27710843373494	0.1325301204819277	7.819277108433735	4045.421245421245	378.4724850503368	52.30769230769231	-50.76923076923077	-18.46153846153846	-0.9818181818181818	0.3290909090909091	-0.0979591836734694
271276.8249511719	-6.228915662650603	0.1325301204819277	7.819277108433735	4038.095238095238	378.6874692316432	49.23076923076923	-53.84615384615384	1.538461538461538	-0.9872727272727273	0.3181818181818182	-0.09693877551020409
271296.3562011719	-6.253012048192772	0.1204819277108434	7.807228915662651	4036.630036630037	378.6874692316432	69.23076923076923	-33.84615384615384	-18.46153846153846	-0.9845454545454545	0.3336363636363636	-0.09591836734693879
271315.8874511719	-6.253012048192772	0.1204819277108434	7.819277108433735	4052.747252747252	378.9026977872082	67.69230769230768	-47.69230769230769	-23.07692307692307	-0.9818181818181818	0.33	-0.1
271335.4187011719	-6.265060240963856	0.1204819277108434	7.807228915662651	4054.212454212454	379.1181711339425	56.92307692307692	-49.23076923076923	-30.76923076923077	-0.9881818181818182	0.3072727272727273	-0.09591836734693879
271354.9499511719	-6.265060240963856	0.1204819277108434	7.819277108433735	4038.095238095238	379.1181711339425	53.84615384615384	-70.76923076923076	-15.38461538461538	-0.9854545454545455	0.3118181818181818	-0.1020408163265306
271374.4812011719	-6.240963855421687	0.1325301204819277	7.819277108433735	4054.212454212454	379.1181711339425	63.07692307692307	-47.69230769230769	-27.69230769230769	-0.9827272727272727	0.3145454545454546	-0.0979591836734694
271394.0124511719	-6.240963855421687	0.108433734939759	7.819277108433735	4043.956043956044	379.333889689705	46.15384615384615	-61.53846153846153	-18.46153846153846	-0.9781818181818182	0.3227272727272728	-0.0989795918367347
271413.5437011719	-6.253012048192772	0.1204819277108434	7.819277108433735	4032.234432234432	379.1181711339425	55.38461538461538	-44.61538461538461	-9.23076923076923	-0.9818181818181818	0.32	-0.1
271433.0749511719	-6.265060240963856	0.108433734939759	7.807228915662651	4029.304029304029	379.1181711339425	50.76923076923077	-63.07692307692307	-33.84615384615384	-0.9772727272727273	0.3236363636363636	-0.0979591836734694
271452.6062011719	-6.253012048192772	0.1204819277108434	7.807228915662651	4042.490842490842	379.5498538733062	63.07692307692307	-90.76923076923076	-46.15384615384615	-0.9890909090909091	0.3081818181818182	-0.0979591836734694
271472.1374511719	-6.216867469879518	0.1204819277108434	7.83132530120482	4064.468864468864	379.5498538733062	67.69230769230768	-69.23076923076923	-30.76923076923077	-0.9818181818181818	0.3236363636363636	-0.1
271491.6687011719	-6.240963855421687	0.1325301204819277	7.807228915662651	4055.677655677655	379.7660641045116	46.15384615384615	-67.69230769230768	-23.07692307692307	-0.9854545454545455	0.3145454545454546	-0.0989795918367347
271511.1999511719	-6.253012048192772	0.108433734939759	7.807228915662651	4033.699633699634	379.7660641045116	55.38461538461538	-64.61538461538461	-32.30769230769231	-0.9863636363636363	0.3090909090909091	-0.1020408163265306
271530.7312011719	-6.253012048192772	0.108433734939759	7.819277108433735	4030.769230769231	379.9825208040429	56.92307692307692	-90.76923076923076	-12.30769230769231	-0.980909090909091	0.3218181818181818	-0.1010204081632653
271550.2624511719	-6.240963855421687	0.108433734939759	7.819277108433735	4052.747252747252	379.9825208040429	56.92307692307692	-81.53846153846153	-46.15384615384615	-0.9863636363636363	0.3081818181818182	-0.09591836734693879
271569.7937011719	-6.253012048192772	0.1566265060240964	7.83132530120482	4046.886446886447	379.9825208040429	35.38461538461538	-53.84615384615384	-29.23076923076923	-0.9845454545454545	0.3281818181818182	-0.09489795918367348
271589.3249511719	-6.228915662650603	0.108433734939759	7.819277108433735	4051.282051282051	379.9825208040429	55.38461538461538	-56.92307692307692	-47.69230769230769	-0.9872727272727273	0.3154545454545454	-0.1
271608.8562011719	-6.253012048192772	0.1204819277108434	7.819277108433735	4049.81684981685	380.1992243935821	32.30769230769231	-46.15384615384615	-3.076923076923077	-0.9890909090909091	0.3072727272727273	-0.0989795918367347
271628.3874511719	-6.216867469879518	0.1325301204819277	7.819277108433735	4045.421245421245	380.1992243935821	75.38461538461537	-58.46153846153845	4.615384615384615	-0.9881818181818182	0.3081818181818182	-0.1
271647.9187011719	-6.27710843373494	0.108433734939759	7.807228915662651	4052.747252747252	380.1992243935821	64.61538461538461	-12.30769230769231	-36.92307692307692	-0.9863636363636363	0.32	-0.09693877551020409
271667.4499511719	-6.265060240963856	0.1325301204819277	7.819277108433735	4035.164835164835	380.4161752957735	36.92307692307692	-78.46153846153845	-38.46153846153846	-0.9863636363636363	0.3063636363636363	-0.0979591836734694
271686.9812011719	-6.265060240963856	0.108433734939759	7.795180722891566	4027.838827838828	380.1992243935821	53.84615384615384	-64.61538461538461	-44.61538461538461	-0.9854545454545455	0.3154545454545454	-0.09693877551020409
271706.5124511719	-6.27710843373494	0.0963855421686747	7.819277108433735	4052.747252747252	380.6333739342265	55.38461538461538	-70.76923076923076	-47.69230769230769	-0.9854545454545455	0.3163636363636364	-0.0989795918367347
271726.0437011719	-6.216867469879518	0.108433734939759	7.807228915662651	4042.490842490842	380.4161752957735	44.61538461538461	-84.61538461538461	-44.61538461538461	-0.9881818181818182	0.3045454545454546	-0.1010204081632653
271745.5749511719	-6.228915662650603	0.108433734939759	7.843373493975904	4041.025641025641	380.8508207335187	50.76923076923077	-83.07692307692307	-26.15384615384615	-0.9827272727272727	0.3209090909090909	-0.09693877551020409
271765.1062011719	-6.240963855421687	0.1204819277108434	7.807228915662651	4049.81684981685	380.8508207335187	36.92307692307692	-43.07692307692307	-6.153846153846153	-0.9854545454545455	0.3081818181818182	-0.09591836734693879
271784.6374511719	-6.265060240963856	0.1325301204819277	7.819277108433735	4054.212454212454	380.8508207335187	61.53846153846153	-40	-27.69230769230769	-0.9763636363636363	0.3209090909090909	-0.0989795918367347
271804.1687011719	-6.265060240963856	0.108433734939759	7.819277108433735	4033.699633699634	380.8508207335187	40	-83.07692307692307	-26.15384615384615	-0.9863636363636363	0.3218181818181818	-0.0989795918367347
271823.6999511719	-6.265060240963856	0.1204819277108434	7.795180722891566	4041.025641025641	381.0685161191983	47.69230769230769	-78.46153846153845	-44.61538461538461	-0.9772727272727273	0.3127272727272727	-0.0989795918367347
271843.2312011719	-6.240963855421687	0.1204819277108434	7.83132530120482	4063.003663003663	381.286460517787	40	-92.30769230769229	-47.69230769230769	-0.9854545454545455	0.3081818181818182	-0.0989795918367347
271862.7624511719	-6.228915662650603	0.0963855421686747	7.819277108433735	4049.81684981685	381.286460517787	44.61538461538461	-72.30769230769231	-44.61538461538461	-0.9836363636363636	0.32	-0.09387755102040818
271882.2937011719	-6.253012048192772	0.1204819277108434	7.807228915662651	4048.351648351648	381.0685161191983	36.92307692307692	-50.76923076923077	-26.15384615384615	-0.9863636363636363	0.3090909090909091	-0.0979591836734694
271901.8249511719	-6.265060240963856	0.108433734939759	7.807228915662651	4052.747252747252	381.5046543567831	56.92307692307692	-58.46153846153845	-29.23076923076923	-0.9790909090909091	0.3172727272727273	-0.0979591836734694
271921.3562011719	-6.253012048192772	0.108433734939759	7.807228915662651	4052.747252747252	381.5046543567831	50.76923076923077	-78.46153846153845	-23.07692307692307	-0.9890909090909091	0.3218181818181818	-0.0989795918367347
271940.8874511719	-6.253012048192772	0.1204819277108434	7.807228915662651	4057.142857142857	381.5046543567831	53.84615384615384	-64.61538461538461	-9.23076923076923	-0.9881818181818182	0.3127272727272727	-0.09693877551020409
271960.4187011719	-6.27710843373494	0.0963855421686747	7.807228915662651	4039.560439560439	381.5046543567831	61.53846153846153	-64.61538461538461	-53.84615384615384	-0.9827272727272727	0.3245454545454545	-0.0989795918367347
271979.9499511719	-6.240963855421687	0.08433734939759037	7.819277108433735	4036.630036630037	381.5046543567831	58.46153846153845	-93.84615384615384	-35.38461538461538	-0.9781818181818182	0.3081818181818182	-0.1010204081632653
271999.4812011719	-6.240963855421687	0.108433734939759	7.807228915662651	4049.81684981685	381.7230980646639	47.69230769230769	-73.84615384615384	-36.92307692307692	-0.9863636363636363	0.3281818181818182	-0.09591836734693879
272019.0124511719	-6.240963855421687	0.108433734939759	7.819277108433735	4049.81684981685	381.7230980646639	46.15384615384615	-44.61538461538461	0	-0.9772727272727273	0.3227272727272728	-0.09591836734693879
272038.5437011719	-6.265060240963856	0.1325301204819277	7.819277108433735	4038.095238095238	381.7230980646639	44.61538461538461	-53.84615384615384	-30.76923076923077	-0.9872727272727273	0.3054545454545455	-0.0979591836734694
272058.0749511719	-6.27710843373494	0.1204819277108434	7.807228915662651	4021.978021978022	381.9417920708884	40	-58.46153846153845	-6.153846153846153	-0.9872727272727273	0.3054545454545455	-0.1020408163265306
272077.6062011719	-6.27710843373494	0.07228915662650604	7.819277108433735	4049.81684981685	381.9417920708884	49.23076923076923	-59.99999999999999	-9.23076923076923	-0.9863636363636363	0.3172727272727273	-0.0979591836734694
272097.1374511719	-6.265060240963856	0.0963855421686747	7.759036144578314	4049.81684981685	381.9417920708884	70.76923076923076	-32.30769230769231	3.076923076923077	-0.9881818181818182	0.3063636363636363	-0.1
272116.6687011719	-6.325301204819278	0.1325301204819277	7.843373493975904	4049.81684981685	382.1607368059006	55.38461538461538	-115.3846153846154	-44.61538461538461	-0.9818181818181818	0.3236363636363636	-0.1
272136.1999511719	-6.19277108433735	0.0963855421686747	7.746987951807229	4033.699633699634	382.3799327011319	36.92307692307692	-164.6153846153846	-21.53846153846154	-0.99	0.3163636363636364	-0.0989795918367347
272155.7312011719	-6.337349397590362	0.1325301204819277	7.819277108433735	4054.212454212454	382.3799327011319	56.92307692307692	-67.69230769230768	-50.76923076923077	-0.9763636363636363	0.3245454545454545	-0.1
272175.2624511719	-6.27710843373494	0.1566265060240964	7.819277108433735	4036.630036630037	382.1607368059006	-4.615384615384615	-220	-109.2307692307692	-0.98	0.32	-0.0989795918367347
272194.7937011719	-6.240963855421687	0.08433734939759037	7.734939759036145	4043.956043956044	382.3799327011319	-7.692307692307692	-235.3846153846154	-130.7692307692308	-0.9836363636363636	0.3090909090909091	-0.1
272214.3249511719	-6.253012048192772	0.02409638554216868	7.855421686746988	4052.747252747252	382.5993801890041	-61.53846153846153	-256.9230769230769	-101.5384615384615	-0.9845454545454545	0.3127272727272727	-0.09489795918367348
272233.8562011719	-6.204819277108434	0.08433734939759037	7.879518072289157	4054.212454212454	382.5993801890041	-64.61538461538461	-318.4615384615385	-147.6923076923077	-0.9863636363636363	0.3172727272727273	-0.1010204081632653
272253.3874511719	-6.216867469879518	0.04819277108433735	7.807228915662651	4054.212454212454	382.5993801890041	15.38461538461538	-283.076923076923	-178.4615384615385	-0.9854545454545455	0.3236363636363636	-0.09693877551020409
272272.9187011719	-6.253012048192772	0.07228915662650604	7.867469879518072	4039.560439560439	382.5993801890041	40	-256.9230769230769	-181.5384615384615	-0.9881818181818182	0.3090909090909091	-0.1
272292.4499511719	-6.19277108433735	0.0963855421686747	7.903614457831326	4032.234432234432	382.5993801890041	23.07692307692307	-359.9999999999999	-161.5384615384615	-0.9863636363636363	0.3172727272727273	-0.09387755102040818
272311.9812011719	-6.168674698795181	0.04819277108433735	7.843373493975904	4052.747252747252	382.8190797029324	104.6153846153846	-303.076923076923	-195.3846153846154	-0.9881818181818182	0.3081818181818182	-0.1010204081632653
272331.5124511719	-6.240963855421687	0.06024096385542169	7.83132530120482	4042.490842490842	382.5993801890041	132.3076923076923	-263.076923076923	-207.6923076923077	-0.9790909090909091	0.3190909090909091	-0.1020408163265306
272351.0437011719	-6.204819277108434	0.06024096385542169	7.855421686746988	4038.095238095238	382.5993801890041	129.2307692307692	-290.7692307692307	-246.1538461538461	-0.9763636363636363	0.3245454545454545	-0.0989795918367347
272370.5749511719	-6.072289156626506	0.0963855421686747	7.891566265060241	4051.282051282051	382.5993801890041	58.46153846153845	-327.6923076923077	-155.3846153846154	-0.9863636363636363	0.3072727272727273	-0.1030612244897959
272390.1062011719	-6.156626506024097	0.07228915662650604	7.879518072289157	4055.677655677655	382.8190797029324	35.38461538461538	-187.6923076923077	-107.6923076923077	-0.98	0.32	-0.1030612244897959
272409.6374511719	-6.204819277108434	0.04819277108433735	7.879518072289157	4052.747252747252	383.0390316773278	10.76923076923077	-132.3076923076923	-47.69230769230769	-0.9763636363636363	0.3118181818181818	-0.1020408163265306
272429.1687011719	-6.19277108433735	0.06024096385542169	7.843373493975904	4046.886446886447	383.0390316773278	29.23076923076923	-118.4615384615385	-32.30769230769231	-0.9863636363636363	0.3063636363636363	-0.1010204081632653
272448.6999511719	-6.168674698795181	0.01204819277108434	7.843373493975904	4026.373626373626	382.8190797029324	36.92307692307692	-150.7692307692308	-81.53846153846153	-0.9763636363636363	0.3272727272727273	-0.0989795918367347
272468.2312011719	-6.10843373493976	0.06024096385542169	7.891566265060241	4041.025641025641	383.0390316773278	72.30769230769231	-167.6923076923077	-99.99999999999999	-0.9881818181818182	0.3072727272727273	-0.1020408163265306
272487.7624511719	-6.120481927710844	0.06024096385542169	7.903614457831326	4027.838827838828	383.0390316773278	38.46153846153846	-138.4615384615385	-67.69230769230768	-0.98	0.3118181818181818	-0.1040816326530612
272507.2937011719	-6.144578313253012	0.07228915662650604	7.91566265060241	4045.421245421245	383.0390316773278	59.99999999999999	20	10.76923076923077	-0.9863636363636363	0.3163636363636364	-0.09387755102040818
272526.8249511719	-6.168674698795181	0.06024096385542169	7.891566265060241	4049.81684981685	383.2592365476007	69.23076923076923	135.3846153846154	56.92307692307692	-0.9818181818181818	0.3081818181818182	-0.1
272546.3562011719	-6.19277108433735	0.06024096385542169	7.843373493975904	4054.212454212454	383.2592365476007	38.46153846153846	124.6153846153846	80	-0.9818181818181818	0.3181818181818182	-0.1040816326530612
272565.8874511719	-6.228915662650603	0.01204819277108434	7.819277108433735	4051.282051282051	383.2592365476007	38.46153846153846	67.69230769230768	41.53846153846153	-0.9872727272727273	0.3172727272727273	-0.0979591836734694
272585.4187011719	-6.228915662650603	0.04819277108433735	7.843373493975904	4041.025641025641	383.2592365476007	26.15384615384615	-9.23076923076923	-4.615384615384615	-0.9836363636363636	0.3127272727272727	-0.1051020408163265
272604.9499511719	-6.204819277108434	0.08433734939759037	7.843373493975904	4030.769230769231	383.2592365476007	35.38461538461538	-76.92307692307692	-18.46153846153846	-0.9818181818181818	0.3190909090909091	-0.09693877551020409
272624.4812011719	-6.180722891566266	0.06024096385542169	7.855421686746988	4063.003663003663	383.7004067224311	66.15384615384615	-32.30769230769231	-26.15384615384615	-0.9854545454545455	0.3063636363636363	-0.1020408163265306
272644.0124511719	-6.228915662650603	0.04819277108433735	7.855421686746988	4054.212454212454	383.4796947501629	67.69230769230768	-84.61538461538461	-29.23076923076923	-0.9827272727272727	0.3072727272727273	-0.1030612244897959
272663.5437011719	-6.19277108433735	0.06024096385542169	7.867469879518072	4035.164835164835	383.4796947501629	46.15384615384615	-104.6153846153846	-6.153846153846153	-0.9881818181818182	0.3190909090909091	-0.1010204081632653
272683.0749511719	-6.180722891566266	0.07228915662650604	7.867469879518072	4046.886446886447	383.7004067224311	69.23076923076923	-106.1538461538462	-15.38461538461538	-0.9872727272727273	0.3072727272727273	-0.1010204081632653
272702.6062011719	-6.19277108433735	0.03614457831325302	7.891566265060241	4051.282051282051	383.7004067224311	98.46153846153845	-106.1538461538462	-61.53846153846153	-0.9872727272727273	0.3081818181818182	-0.1020408163265306
272722.1374511719	-6.19277108433735	0.07228915662650604	7.807228915662651	4064.468864468864	383.9213729028295	129.2307692307692	-36.92307692307692	-72.30769230769231	-0.9872727272727273	0.3163636363636364	-0.09693877551020409
272741.6687011719	-6.180722891566266	0.03614457831325302	7.867469879518072	4049.81684981685	383.9213729028295	86.15384615384615	-195.3846153846154	18.46153846153846	-0.9881818181818182	0.3090909090909091	-0.1010204081632653
272761.1999511719	-6.048192771084338	0.02409638554216868	7.975903614457832	4035.164835164835	383.9213729028295	118.4615384615385	-115.3846153846154	87.69230769230768	-0.9790909090909091	0.3218181818181818	-0.1010204081632653
272780.7312011719	-6.156626506024097	0.08433734939759037	7.879518072289157	4054.212454212454	384.1425937307928	141.5384615384615	106.1538461538462	58.46153846153845	-0.9845454545454545	0.3172727272727273	-0.1010204081632653
272800.2624511719	-6.216867469879518	0.08433734939759037	7.843373493975904	4042.490842490842	384.1425937307928	104.6153846153846	76.92307692307692	81.53846153846153	-0.9818181818181818	0.3181818181818182	-0.1010204081632653
272819.7937011719	-6.228915662650603	0.1204819277108434	7.867469879518072	4045.421245421245	383.9213729028295	116.9230769230769	38.46153846153846	24.61538461538461	-0.9827272727272727	0.3209090909090909	-0.1010204081632653
272839.3249511719	-6.240963855421687	0.04819277108433735	7.867469879518072	4055.677655677655	384.1425937307928	141.5384615384615	-12.30769230769231	-58.46153846153845	-0.9863636363636363	0.3036363636363637	-0.0989795918367347
272858.8562011719	-6.228915662650603	0.03614457831325302	7.819277108433735	4051.282051282051	384.1425937307928	158.4615384615385	-47.69230769230769	-126.1538461538462	-0.9818181818181818	0.3190909090909091	-0.09693877551020409
272878.3874511719	-6.144578313253012	0.08433734939759037	7.879518072289157	4045.421245421245	384.1425937307928	150.7692307692308	-90.76923076923076	-84.61538461538461	-0.9872727272727273	0.3172727272727273	-0.1
272897.9187011719	-6.084337349397591	0.108433734939759	7.843373493975904	4048.351648351648	384.1425937307928	104.6153846153846	63.07692307692307	-26.15384615384615	-0.9881818181818182	0.3063636363636363	-0.1
272917.4499511719	-6.168674698795181	0.08433734939759037	7.807228915662651	4027.838827838828	384.1425937307928	58.46153846153845	173.8461538461538	18.46153846153846	-0.9827272727272727	0.3136363636363637	-0.1010204081632653
272936.9812011719	-6.265060240963856	0.0963855421686747	7.903614457831326	4052.747252747252	384.3640696467694	15.38461538461538	90.76923076923076	116.9230769230769	-0.99	0.3181818181818182	-0.09693877551020409
272956.5124511719	-6.216867469879518	0.108433734939759	7.83132530120482	4051.282051282051	384.3640696467694	69.23076923076923	152.3076923076923	123.0769230769231	-0.9772727272727273	0.3127272727272727	-0.1
272976.0437011719	-6.204819277108434	0.07228915662650604	7.83132530120482	4042.490842490842	384.3640696467694	81.53846153846153	163.0769230769231	141.5384615384615	-0.9763636363636363	0.3245454545454545	-0.0979591836734694
272995.5749511719	-6.228915662650603	0.0963855421686747	7.807228915662651	4052.747252747252	384.3640696467694	63.07692307692307	206.1538461538461	156.9230769230769	-0.9872727272727273	0.3190909090909091	-0.09591836734693879
273015.1062011719	-6.240963855421687	0.04819277108433735	7.746987951807229	4055.677655677655	384.3640696467694	49.23076923076923	120	172.3076923076923	-0.9818181818181818	0.3172727272727273	-0.1020408163265306
273034.6374511719	-6.36144578313253	0.0963855421686747	7.734939759036145	4057.142857142857	384.8077885096394	66.15384615384615	129.2307692307692	63.07692307692307	-0.9818181818181818	0.3236363636363636	-0.1020408163265306
273054.1687011719	-6.313253012048193	0.108433734939759	7.867469879518072	4055.677655677655	384.5858010922237	-15.38461538461538	-90.76923076923076	84.61538461538461	-0.9872727272727273	0.3045454545454546	-0.1020408163265306
273073.6999511719	-6.216867469879518	0.1325301204819277	7.819277108433735	4041.025641025641	384.3640696467694	24.61538461538461	-120	4.615384615384615	-0.98	0.3081818181818182	-0.1020408163265306
273093.2312011719	-6.349397590361446	0.1204819277108434	7.771084337349398	4049.81684981685	384.5858010922237	40	-158.4615384615385	-90.76923076923076	-0.9818181818181818	0.3154545454545454	-0.0979591836734694
273112.7624511719	-6.313253012048193	0.108433734939759	7.83132530120482	4048.351648351648	384.5858010922237	16.92307692307692	-324.6153846153846	-130.7692307692308	-0.9781818181818182	0.3218181818181818	-0.0989795918367347
273132.2937011719	-6.168674698795181	0.08433734939759037	7.819277108433735	4035.164835164835	384.5858010922237	27.69230769230769	-324.6153846153846	-104.6153846153846	-0.9781818181818182	0.3063636363636363	-0.1030612244897959
273151.8249511719	-6.096385542168675	0.07228915662650604	7.855421686746988	4051.282051282051	384.8077885096394	18.46153846153846	-246.1538461538461	-76.92307692307692	-0.9890909090909091	0.3181818181818182	-0.1010204081632653
273171.3562011719	-6.180722891566266	0.08433734939759037	7.843373493975904	4052.747252747252	384.8077885096394	-33.84615384615384	-95.38461538461537	-63.07692307692307	-0.9890909090909091	0.3063636363636363	-0.1010204081632653
273190.8874511719	-6.313253012048193	0.108433734939759	7.807228915662651	4041.025641025641	385.0300323425227	-32.30769230769231	-73.84615384615384	-52.30769230769231	-0.9827272727272727	0.32	-0.1
273210.4187011719	-6.313253012048193	0.06024096385542169	7.795180722891566	4052.747252747252	385.0300323425227	-24.61538461538461	-196.9230769230769	-129.2307692307692	-0.9872727272727273	0.3154545454545454	-0.1
273229.9499511719	-6.27710843373494	0.04819277108433735	7.819277108433735	4036.630036630037	385.0300323425227	1.538461538461538	-349.2307692307692	-226.1538461538461	-0.980909090909091	0.31	-0.1010204081632653
273249.4812011719	-6.180722891566266	0.01204819277108434	7.843373493975904	4064.468864468864	385.2525330354047	50.76923076923077	-392.3076923076923	-292.3076923076923	-0.9781818181818182	0.32	-0.0989795918367347
273269.0124511719	-6.168674698795181	0.03614457831325302	7.867469879518072	4043.956043956044	385.0300323425227	69.23076923076923	-418.4615384615385	-369.2307692307692	-0.9872727272727273	0.3072727272727273	-0.1020408163265306
273288.5437011719	-6.132530120481929	0.06024096385542169	7.951807228915663	4045.421245421245	385.0300323425227	70.76923076923076	-395.3846153846154	-267.6923076923077	-0.9836363636363636	0.3136363636363637	-0.1051020408163265
273308.0749511719	-6.024096385542169	0.08433734939759037	7.939759036144579	4046.886446886447	385.2525330354047	92.30769230769229	-250.7692307692308	-149.2307692307692	-0.9836363636363636	0.3218181818181818	-0.1010204081632653
273327.6062011719	-5.987951807228916	0.02409638554216868	7.819277108433735	4054.212454212454	385.2525330354047	75.38461538461537	18.46153846153846	-15.38461538461538	-0.9863636363636363	0.3090909090909091	-0.1030612244897959
273347.1374511719	-6.373493975903615	-0.108433734939759	7.891566265060241	4039.560439560439	385.2525330354047	32.30769230769231	-384.6153846153846	152.3076923076923	-0.980909090909091	0.3145454545454546	-0.1020408163265306
273366.6687011719	-5.855421686746988	0.1686746987951807	7.493975903614459	4057.142857142857	385.4752910338448	178.4615384615385	144.6153846153846	99.99999999999999	-0.9881818181818182	0.3172727272727273	-0.1010204081632653
273386.1999511719	-6.662650602409639	-0.06024096385542169	7.939759036144579	4033.699633699634	385.2525330354047	101.5384615384615	21.53846153846154	6.153846153846153	-0.9863636363636363	0.3081818181818182	-0.0989795918367347
273405.7312011719	-5.975903614457832	0.1325301204819277	8.072289156626507	4051.282051282051	385.6983067844332	76.92307692307692	-207.6923076923077	187.6923076923077	-0.980909090909091	0.3227272727272728	-0.0989795918367347
273425.2624511719	-6.084337349397591	0.06024096385542169	7.710843373493976	4052.747252747252	385.4752910338448	207.6923076923077	118.4615384615385	66.15384615384615	-0.9863636363636363	0.3190909090909091	-0.1
273444.7937011719	-6.289156626506024	0.1566265060240964	7.987951807228916	4046.886446886447	385.4752910338448	61.53846153846153	-70.76923076923076	101.5384615384615	-0.98	0.3063636363636363	-0.1030612244897959
273464.3249511719	-6.180722891566266	0.07228915662650604	7.771084337349398	4051.282051282051	385.6983067844332	101.5384615384615	0	106.1538461538462	-0.9781818181818182	0.3236363636363636	-0.1
273483.8562011719	-6.168674698795181	0.08433734939759037	7.83132530120482	4048.351648351648	385.6983067844332	109.2307692307692	61.53846153846153	89.23076923076923	-0.9772727272727273	0.3245454545454545	-0.1010204081632653
273503.3874511719	-6.228915662650603	0.06024096385542169	7.963855421686747	4051.282051282051	385.6983067844332	66.15384615384615	-20	12.30769230769231	-0.9836363636363636	0.3172727272727273	-0.09693877551020409
273522.9187011719	-6.084337349397591	0.08433734939759037	7.819277108433735	4042.490842490842	385.4752910338448	90.76923076923076	118.4615384615385	112.3076923076923	-0.98	0.3181818181818182	-0.1
273542.4499511719	-6.289156626506024	0.1204819277108434	7.855421686746988	4032.234432234432	385.6983067844332	104.6153846153846	103.0769230769231	10.76923076923077	-0.9854545454545455	0.3054545454545455	-0.0979591836734694
273561.9812011719	-6.240963855421687	0.1445783132530121	7.807228915662651	4063.003663003663	385.9215807347947	95.38461538461537	-13.84615384615385	23.07692307692307	-0.9872727272727273	0.3136363636363637	-0.1030612244897959
273581.5124511719	-6.204819277108434	0.1204819277108434	7.783132530120482	4048.351648351648	385.9215807347947	95.38461538461537	38.46153846153846	15.38461538461538	-0.9863636363636363	0.3154545454545454	-0.1
273601.0437011719	-6.228915662650603	0.06024096385542169	7.903614457831326	4041.025641025641	385.9215807347947	56.92307692307692	-73.84615384615384	-21.53846153846154	-0.9881818181818182	0.3063636363636363	-0.1020408163265306
273620.5749511719	-6.180722891566266	0.108433734939759	7.807228915662651	4057.142857142857	386.1451133335908	87.69230769230768	16.92307692307692	-115.3846153846154	-0.9790909090909091	0.3209090909090909	-0.1010204081632653
273640.1062011719	-6.27710843373494	0.04819277108433735	7.879518072289157	4048.351648351648	385.9215807347947	78.46153846153845	-66.15384615384615	-80	-0.9863636363636363	0.3163636363636364	-0.1010204081632653
273659.6374511719	-6.180722891566266	0.1325301204819277	7.879518072289157	4063.003663003663	386.1451133335908	53.84615384615384	-70.76923076923076	-56.92307692307692	-0.9818181818181818	0.31	-0.1020408163265306
273679.1687011719	-6.180722891566266	0.108433734939759	7.855421686746988	4052.747252747252	386.1451133335908	106.1538461538462	-144.6153846153846	-75.38461538461537	-0.98	0.32	-0.0989795918367347
273698.6999511719	-6.180722891566266	0.0963855421686747	7.879518072289157	4038.095238095238	386.1451133335908	49.23076923076923	-10.76923076923077	-36.92307692307692	-0.9827272727272727	0.3263636363636364	-0.0989795918367347
273718.2312011719	-6.216867469879518	0.04819277108433735	7.879518072289157	4054.212454212454	386.3689050305231	50.76923076923077	-13.84615384615385	30.76923076923077	-0.9827272727272727	0.3127272727272727	-0.0979591836734694
273737.7624511719	-6.204819277108434	0.1325301204819277	7.855421686746988	4045.421245421245	386.1451133335908	90.76923076923076	35.38461538461538	-13.84615384615385	-0.9790909090909091	0.3209090909090909	-0.0989795918367347
273757.2937011719	-6.228915662650603	0.0963855421686747	7.795180722891566	4043.956043956044	386.3689050305231	67.69230769230768	7.692307692307692	-75.38461538461537	-0.9781818181818182	0.3127272727272727	-0.1010204081632653
273776.8249511719	-6.204819277108434	0.0963855421686747	7.891566265060241	4021.978021978022	386.1451133335908	21.53846153846154	-59.99999999999999	-67.69230769230768	-0.9827272727272727	0.3190909090909091	-0.1
273796.3562011719	-6.180722891566266	0.08433734939759037	7.855421686746988	4049.81684981685	386.5929562763366	46.15384615384615	33.84615384615384	-23.07692307692307	-0.9863636363636363	0.32	-0.09489795918367348
273815.8874511719	-6.216867469879518	0.08433734939759037	7.891566265060241	4054.212454212454	386.5929562763366	56.92307692307692	46.15384615384615	0	-0.9872727272727273	0.3072727272727273	-0.0989795918367347
273835.4187011719	-6.168674698795181	0.08433734939759037	7.83132530120482	4055.677655677655	386.5929562763366	53.84615384615384	118.4615384615385	63.07692307692307	-0.9827272727272727	0.3263636363636364	-0.0989795918367347
273854.9499511719	-6.240963855421687	0.06024096385542169	7.795180722891566	4042.490842490842	386.5929562763366	76.92307692307692	120	87.69230769230768	-0.9881818181818182	0.3136363636363637	-0.0979591836734694
273874.4812011719	-6.240963855421687	0.1204819277108434	7.843373493975904	4055.677655677655	386.5929562763366	59.99999999999999	140	76.92307692307692	-0.9845454545454545	0.3145454545454546	-0.0979591836734694
273894.0124511719	-6.27710843373494	0.108433734939759	7.807228915662651	4054.212454212454	386.5929562763366	49.23076923076923	118.4615384615385	50.76923076923077	-0.9836363636363636	0.32	-0.1010204081632653
273913.5437011719	-6.240963855421687	0.1204819277108434	7.843373493975904	4045.421245421245	386.5929562763366	38.46153846153846	106.1538461538462	27.69230769230769	-0.9881818181818182	0.31	-0.1020408163265306
273933.0749511719	-6.289156626506024	0.08433734939759037	7.819277108433735	4051.282051282051	386.8172675228221	55.38461538461538	86.15384615384615	33.84615384615384	-0.9890909090909091	0.3145454545454546	-0.1010204081632653
273952.6062011719	-6.265060240963856	0.06024096385542169	7.807228915662651	4039.560439560439	386.5929562763366	44.61538461538461	40	10.76923076923077	-0.9845454545454545	0.3172727272727273	-0.09693877551020409
273972.1374511719	-6.240963855421687	0.0963855421686747	7.795180722891566	4064.468864468864	386.8172675228221	53.84615384615384	15.38461538461538	-1.538461538461538	-0.9872727272727273	0.3072727272727273	-0.1020408163265306
273991.6687011719	-6.27710843373494	0.0963855421686747	7.807228915662651	4046.886446886447	386.5929562763366	38.46153846153846	-13.84615384615385	6.153846153846153	-0.9845454545454545	0.3181818181818182	-0.1010204081632653
274011.1999511719	-6.240963855421687	0.1204819277108434	7.807228915662651	4036.630036630037	386.3689050305231	1.538461538461538	-9.23076923076923	-24.61538461538461	-0.9863636363636363	0.3172727272727273	-0.09693877551020409
274030.7312011719	-6.313253012048193	0.08433734939759037	7.795180722891566	4055.677655677655	386.5929562763366	3.076923076923077	-41.53846153846153	-35.38461538461538	-0.9872727272727273	0.3036363636363637	-0.1010204081632653
274050.2624511719	-6.27710843373494	0.07228915662650604	7.795180722891566	4051.282051282051	386.5929562763366	41.53846153846153	-98.46153846153845	-78.46153846153845	-0.980909090909091	0.3163636363636364	-0.1010204081632653
274069.7937011719	-6.216867469879518	0.08433734939759037	7.795180722891566	4046.886446886447	386.3689050305231	70.76923076923076	-175.3846153846154	-101.5384615384615	-0.98	0.3209090909090909	-0.0989795918367347
274089.3249511719	-6.265060240963856	0.08433734939759037	7.819277108433735	4045.421245421245	386.3689050305231	75.38461538461537	-169.2307692307692	-113.8461538461538	-0.98	0.3281818181818182	-0.0989795918367347
274108.8562011719	-6.240963855421687	0.07228915662650604	7.807228915662651	4041.025641025641	386.3689050305231	44.61538461538461	-161.5384615384615	-109.2307692307692	-0.9845454545454545	0.3227272727272728	-0.0989795918367347
274128.3874511719	-6.216867469879518	0.07228915662650604	7.819277108433735	4049.81684981685	386.3689050305231	70.76923076923076	-160	-87.69230769230768	-0.9863636363636363	0.3090909090909091	-0.0979591836734694
274147.9187011719	-6.19277108433735	0.08433734939759037	7.867469879518072	4057.142857142857	386.3689050305231	47.69230769230769	-153.8461538461538	-67.69230769230768	-0.980909090909091	0.31	-0.1
274167.4499511719	-6.180722891566266	0.08433734939759037	7.855421686746988	4030.769230769231	385.9215807347947	56.92307692307692	-86.15384615384615	-18.46153846153846	-0.9818181818181818	0.32	-0.0979591836734694
274186.9812011719	-6.253012048192772	0.07228915662650604	7.83132530120482	4049.81684981685	385.9215807347947	50.76923076923077	16.92307692307692	20	-0.9845454545454545	0.3190909090909091	-0.09591836734693879
274206.5124511719	-6.27710843373494	0.06024096385542169	7.795180722891566	4041.025641025641	385.6983067844332	78.46153846153845	13.84615384615385	61.53846153846153	-0.980909090909091	0.3072727272727273	-0.1
274226.0437011719	-6.240963855421687	0.07228915662650604	7.83132530120482	4045.421245421245	385.4752910338448	89.23076923076923	18.46153846153846	36.92307692307692	-0.9854545454545455	0.3118181818181818	-0.09591836734693879
274245.5749511719	-6.240963855421687	0.0963855421686747	7.807228915662651	4054.212454212454	385.4752910338448	87.69230769230768	10.76923076923077	23.07692307692307	-0.9836363636363636	0.3163636363636364	-0.09489795918367348
274265.1062011719	-6.27710843373494	0.07228915662650604	7.807228915662651	4048.351648351648	385.2525330354047	112.3076923076923	10.76923076923077	33.84615384615384	-0.980909090909091	0.3163636363636364	-0.1
274284.6374511719	-6.253012048192772	0.1204819277108434	7.795180722891566	4052.747252747252	385.0300323425227	133.8461538461538	-12.30769230769231	32.30769230769231	-0.9881818181818182	0.3109090909090909	-0.0979591836734694
274304.1687011719	-6.27710843373494	0.08433734939759037	7.795180722891566	4045.421245421245	384.8077885096394	133.8461538461538	-26.15384615384615	3.076923076923077	-0.9781818181818182	0.3090909090909091	-0.1020408163265306
274323.6999511719	-6.253012048192772	0.0963855421686747	7.819277108433735	4041.025641025641	384.3640696467694	92.30769230769229	-47.69230769230769	-7.692307692307692	-0.9818181818181818	0.3172727272727273	-0.0989795918367347
274343.2312011719	-6.240963855421687	0.07228915662650604	7.819277108433735	4048.351648351648	384.3640696467694	103.0769230769231	-49.23076923076923	10.76923076923077	-0.9818181818181818	0.3127272727272727	-0.1040816326530612
274362.7624511719	-6.289156626506024	0.1686746987951807	7.807228915662651	4046.886446886447	383.9213729028295	113.8461538461538	-38.46153846153846	10.76923076923077	-0.9790909090909091	0.31	-0.0979591836734694
274382.2937011719	-6.253012048192772	0.108433734939759	7.795180722891566	4042.490842490842	383.7004067224311	104.6153846153846	-93.84615384615384	21.53846153846154	-0.9818181818181818	0.3181818181818182	-0.1010204081632653
274401.8249511719	-6.228915662650603	0.0963855421686747	7.807228915662651	4052.747252747252	383.4796947501629	98.46153846153845	-26.15384615384615	-26.15384615384615	-0.9845454545454545	0.3045454545454546	-0.1061224489795919
274421.3562011719	-6.313253012048193	0.0963855421686747	7.771084337349398	4038.095238095238	383.2592365476007	73.84615384615384	-61.53846153846153	-38.46153846153846	-0.9790909090909091	0.3072727272727273	-0.1
274440.8874511719	-6.27710843373494	0.108433734939759	7.783132530120482	4063.003663003663	383.0390316773278	58.46153846153845	-98.46153846153845	-78.46153846153845	-0.9863636363636363	0.3118181818181818	-0.09489795918367348
274460.4187011719	-6.27710843373494	0.108433734939759	7.807228915662651	4051.282051282051	382.5993801890041	81.53846153846153	-163.0769230769231	-96.92307692307692	-0.9845454545454545	0.3154545454545454	-0.0979591836734694
274479.9499511719	-6.216867469879518	0.0963855421686747	7.807228915662651	4038.095238095238	382.1607368059006	58.46153846153845	-169.2307692307692	-73.84615384615384	-0.9818181818181818	0.3209090909090909	-0.0989795918367347
274499.4812011719	-6.253012048192772	0.07228915662650604	7.83132530120482	4027.838827838828	381.9417920708884	72.30769230769231	-144.6153846153846	-59.99999999999999	-0.9881818181818182	0.3118181818181818	-0.09693877551020409
274519.0124511719	-6.265060240963856	0.08433734939759037	7.795180722891566	4045.421245421245	381.7230980646639	81.53846153846153	-99.99999999999999	-40	-0.980909090909091	0.3181818181818182	-0.0979591836734694
274538.5437011719	-6.265060240963856	0.0963855421686747	7.807228915662651	4046.886446886447	381.286460517787	61.53846153846153	-169.2307692307692	-59.99999999999999	-0.9754545454545455	0.3218181818181818	-0.0979591836734694
274558.0749511719	-6.228915662650603	0.1325301204819277	7.807228915662651	4046.886446886447	381.0685161191983	72.30769230769231	-138.4615384615385	-61.53846153846153	-0.9854545454545455	0.3054545454545455	-0.1020408163265306
274577.6062011719	-6.253012048192772	0.06024096385542169	7.771084337349398	4030.769230769231	380.6333739342265	35.38461538461538	-69.23076923076923	-50.76923076923077	-0.9845454545454545	0.3063636363636363	-0.1010204081632653
274597.1374511719	-6.228915662650603	0.1204819277108434	7.807228915662651	4045.421245421245	380.1992243935821	33.84615384615384	-167.6923076923077	-13.84615384615385	-0.980909090909091	0.3172727272727273	-0.1030612244897959
274616.6687011719	-6.253012048192772	0.08433734939759037	7.855421686746988	4051.282051282051	379.9825208040429	70.76923076923076	-104.6153846153846	-47.69230769230769	-0.9863636363636363	0.3090909090909091	-0.1020408163265306
274636.1999511719	-6.216867469879518	0.0963855421686747	7.807228915662651	4030.769230769231	379.5498538733062	67.69230769230768	-75.38461538461537	-30.76923076923077	-0.980909090909091	0.3081818181818182	-0.1020408163265306
274655.7312011719	-6.253012048192772	0.108433734939759	7.795180722891566	4052.747252747252	379.333889689705	55.38461538461538	-92.30769230769229	-47.69230769230769	-0.9863636363636363	0.3090909090909091	-0.09693877551020409
274675.2624511719	-6.228915662650603	0.0963855421686747	7.867469879518072	4051.282051282051	378.9026977872082	55.38461538461538	-140	-6.153846153846153	-0.9836363636363636	0.3118181818181818	-0.0989795918367347
274694.7937011719	-6.204819277108434	0.0963855421686747	7.83132530120482	4052.747252747252	378.4724850503368	72.30769230769231	-36.92307692307692	24.61538461538461	-0.9845454545454545	0.3245454545454545	-0.1010204081632653
274714.3249511719	-6.253012048192772	0.108433734939759	7.843373493975904	4038.095238095238	378.0432481475881	67.69230769230768	-55.38461538461538	52.30769230769231	-0.9863636363636363	0.3090909090909091	-0.09693877551020409
274733.8562011719	-6.253012048192772	0.108433734939759	7.819277108433735	4048.351648351648	377.8289945970454	73.84615384615384	-30.76923076923077	53.84615384615384	-0.9827272727272727	0.3063636363636363	-0.1030612244897959
274753.3874511719	-6.240963855421687	0.108433734939759	7.819277108433735	4063.003663003663	377.6149837625557	93.84615384615384	-49.23076923076923	40	-0.9863636363636363	0.3263636363636364	-0.1010204081632653
274772.9187011719	-6.216867469879518	0.0963855421686747	7.843373493975904	4049.81684981685	377.1876885938443	81.53846153846153	-56.92307692307692	49.23076923076923	-0.9872727272727273	0.3090909090909091	-0.1020408163265306
274792.4499511719	-6.216867469879518	0.108433734939759	7.843373493975904	4035.164835164835	376.7613593549845	90.76923076923076	-16.92307692307692	70.76923076923076	-0.9781818181818182	0.3263636363636364	-0.09591836734693879
274811.9812011719	-6.253012048192772	0.1445783132530121	7.819277108433735	4051.282051282051	376.3359927743489	84.61538461538461	-32.30769230769231	59.99999999999999	-0.9836363636363636	0.3236363636363636	-0.0989795918367347
274831.5124511719	-6.253012048192772	0.1204819277108434	7.807228915662651	4043.956043956044	375.9115855950681	84.61538461538461	-59.99999999999999	27.69230769230769	-0.980909090909091	0.3081818181818182	-0.1020408163265306
274851.0437011719	-6.240963855421687	0.1204819277108434	7.783132530120482	4051.282051282051	375.4881345749475	107.6923076923077	-38.46153846153846	18.46153846153846	-0.9745454545454545	0.3172727272727273	-0.1
274870.5749511719	-6.265060240963856	0.08433734939759037	7.819277108433735	4051.282051282051	375.4881345749475	75.38461538461537	-78.46153846153845	-21.53846153846154	-0.9781818181818182	0.3127272727272727	-0.09693877551020409
274890.1062011719	-6.253012048192772	0.1204819277108434	7.819277108433735	4048.351648351648	375.0656364863851	81.53846153846153	-96.92307692307692	0	-0.9854545454545455	0.3081818181818182	-0.1
274909.6374511719	-6.240963855421687	0.1204819277108434	7.807228915662651	4024.908424908424	374.8547437867827	80	-86.15384615384615	-10.76923076923077	-0.9854545454545455	0.3181818181818182	-0.0989795918367347
274929.1687011719	-6.253012048192772	0.108433734939759	7.819277108433735	4049.81684981685	374.2234862659981	81.53846153846153	-87.69230769230768	-10.76923076923077	-0.99	0.3090909090909091	-0.09591836734693879
274948.6999511719	-6.27710843373494	0.1325301204819277	7.795180722891566	4032.234432234432	373.8038277511961	101.5384615384615	-92.30769230769229	-29.23076923076923	-0.9827272727272727	0.31	-0.0989795918367347
274968.2312011719	-6.228915662650603	0.1204819277108434	7.807228915662651	4055.677655677655	373.594351253409	83.07692307692307	-103.0769230769231	-16.92307692307692	-0.9854545454545455	0.3145454545454546	-0.09693877551020409
274987.7624511719	-6.228915662650603	0.108433734939759	7.819277108433735	4038.095238095238	373.385109401837	76.92307692307692	-109.2307692307692	-36.92307692307692	-0.9781818181818182	0.31	-0.1010204081632653
275007.2937011719	-6.216867469879518	0.1325301204819277	7.819277108433735	4058.608058608058	372.9673280620617	84.61538461538461	-64.61538461538461	-44.61538461538461	-0.9818181818181818	0.3072727272727273	-0.1
275026.8249511719	-6.253012048192772	0.1445783132530121	7.795180722891566	4046.886446886447	372.758787788422	89.23076923076923	-64.61538461538461	-72.30769230769231	-0.9818181818181818	0.3236363636363636	-0.0979591836734694
275046.3562011719	-6.253012048192772	0.108433734939759	7.819277108433735	4035.164835164835	372.3424060766281	70.76923076923076	-63.07692307692307	-61.53846153846153	-0.9827272727272727	0.31	-0.1020408163265306
275065.8874511719	-6.204819277108434	0.1325301204819277	7.843373493975904	4063.003663003663	372.1345638582912	69.23076923076923	-90.76923076923076	-43.07692307692307	-0.98	0.3090909090909091	-0.1030612244897959
275085.4187011719	-6.228915662650603	0.08433734939759037	7.83132530120482	4051.282051282051	371.7195747528065	87.69230769230768	-64.61538461538461	-9.23076923076923	-0.9881818181818182	0.3054545454545455	-0.09489795918367348
275104.9499511719	-6.240963855421687	0.1325301204819277	7.819277108433735	4038.095238095238	371.3055101737709	78.46153846153845	-29.23076923076923	12.30769230769231	-0.980909090909091	0.3063636363636363	-0.1
275124.4812011719	-6.289156626506024	0.1204819277108434	7.795180722891566	4029.304029304029	370.8923670350864	70.76923076923076	-21.53846153846154	-18.46153846153846	-0.9845454545454545	0.3218181818181818	-0.09591836734693879
275144.0124511719	-6.27710843373494	0.1325301204819277	7.795180722891566	4055.677655677655	370.8923670350864	36.92307692307692	-44.61538461538461	-53.84615384615384	-0.9863636363636363	0.3036363636363637	-0.0979591836734694
275163.5437011719	-6.289156626506024	0.1204819277108434	7.807228915662651	4055.677655677655	370.6861400452237	52.30769230769231	-118.4615384615385	-93.84615384615384	-0.9845454545454545	0.3181818181818182	-0.09693877551020409
275183.0749511719	-6.240963855421687	0.1204819277108434	7.819277108433735	4032.234432234432	370.2743733106231	41.53846153846153	-155.3846153846154	-72.30769230769231	-0.9845454545454545	0.3236363636363636	-0.09591836734693879
275202.6062011719	-6.216867469879518	0.108433734939759	7.843373493975904	4043.956043956044	370.0688328029013	55.38461538461538	-147.6923076923077	-44.61538461538461	-0.9854545454545455	0.3045454545454546	-0.09693877551020409
275222.1374511719	-6.240963855421687	0.108433734939759	7.819277108433735	4027.838827838828	370.0688328029013	63.07692307692307	-118.4615384615385	-24.61538461538461	-0.9827272727272727	0.3245454545454545	-0.1
275241.6687011719	-6.240963855421687	0.108433734939759	7.807228915662651	4057.142857142857	369.6584356055004	81.53846153846153	-89.23076923076923	-9.23076923076923	-0.9854545454545455	0.3227272727272728	-0.0979591836734694
275261.1999511719	-6.228915662650603	0.1204819277108434	7.807228915662651	4033.699633699634	369.4535781579045	61.53846153846153	-99.99999999999999	-3.076923076923077	-0.9836363636363636	0.3236363636363636	-0.1
275280.7312011719	-6.228915662650603	0.108433734939759	7.819277108433735	4055.677655677655	369.4535781579045	90.76923076923076	-106.1538461538462	-38.46153846153846	-0.98	0.32	-0.09591836734693879
275300.2624511719	-6.228915662650603	0.1204819277108434	7.819277108433735	4039.560439560439	369.0445436764218	78.46153846153845	-101.5384615384615	-27.69230769230769	-0.9781818181818182	0.3090909090909091	-0.1010204081632653
275319.7937011719	-6.204819277108434	0.1204819277108434	7.843373493975904	4060.07326007326	368.6364139049655	59.99999999999999	-109.2307692307692	-15.38461538461538	-0.9872727272727273	0.3081818181818182	-0.1020408163265306
275339.3249511719	-6.240963855421687	0.108433734939759	7.83132530120482	4046.886446886447	368.6364139049655	59.99999999999999	-64.61538461538461	-29.23076923076923	-0.99	0.32	-0.09693877551020409
275358.8562011719	-6.253012048192772	0.1204819277108434	7.807228915662651	4041.025641025641	368.4326873480216	63.07692307692307	-61.53846153846153	-35.38461538461538	-0.9881818181818182	0.3081818181818182	-0.0979591836734694
275378.3874511719	-6.27710843373494	0.108433734939759	7.83132530120482	4057.142857142857	368.2291858452701	84.61538461538461	-84.61538461538461	-72.30769230769231	-0.980909090909091	0.3063636363636363	-0.1
275397.9187011719	-6.204819277108434	0.1204819277108434	7.843373493975904	4052.747252747252	368.0259090239953	75.38461538461537	-115.3846153846154	-44.61538461538461	-0.9781818181818182	0.3218181818181818	-0.09693877551020409
275417.4499511719	-6.228915662650603	0.0963855421686747	7.819277108433735	4036.630036630037	367.6200279391221	66.15384615384615	-98.46153846153845	-32.30769230769231	-0.9845454545454545	0.3063636363636363	-0.09693877551020409
275436.9812011719	-6.216867469879518	0.0963855421686747	7.843373493975904	4057.142857142857	367.6200279391221	61.53846153846153	-86.15384615384615	0	-0.9836363636363636	0.3145454545454546	-0.1
275456.5124511719	-6.240963855421687	0.108433734939759	7.83132530120482	4042.490842490842	367.4174229341955	49.23076923076923	-43.07692307692307	-13.84615384615385	-0.9872727272727273	0.32	-0.09591836734693879
275476.0437011719	-6.265060240963856	0.1204819277108434	7.819277108433735	4064.468864468864	367.2150411280846	75.38461538461537	-61.53846153846153	-56.92307692307692	-0.9854545454545455	0.3063636363636363	-0.0989795918367347
275495.5749511719	-6.240963855421687	0.1204819277108434	7.819277108433735	4052.747252747252	367.0128821521635	61.53846153846153	-104.6153846153846	-46.15384615384615	-0.98	0.3227272727272728	-0.0979591836734694
275515.1062011719	-6.204819277108434	0.108433734939759	7.83132530120482	4042.490842490842	367.0128821521635	87.69230769230768	-129.2307692307692	-32.30769230769231	-0.9845454545454545	0.3063636363636363	-0.0989795918367347
275534.6374511719	-6.216867469879518	0.1204819277108434	7.83132530120482	4051.282051282051	366.8109456386179	64.61538461538461	-84.61538461538461	-18.46153846153846	-0.98	0.3254545454545454	-0.0989795918367347
275554.1687011719	-6.228915662650603	0.1204819277108434	7.83132530120482	4036.630036630037	367.0128821521635	67.69230769230768	-50.76923076923077	0	-0.9890909090909091	0.3190909090909091	-0.09693877551020409
275573.6999511719	-6.240963855421687	0.108433734939759	7.83132530120482	4035.164835164835	366.4077385314377	76.92307692307692	-56.92307692307692	-18.46153846153846	-0.9845454545454545	0.3072727272727273	-0.1
275593.2312011719	-6.240963855421687	0.1325301204819277	7.83132530120482	4024.908424908424	366.4077385314377	86.15384615384615	-67.69230769230768	-20	-0.9845454545454545	0.3290909090909091	-0.1
275612.7624511719	-6.240963855421687	0.108433734939759	7.819277108433735	4054.212454212454	366.2064672062109	72.30769230769231	-83.07692307692307	-29.23076923076923	-0.9790909090909091	0.3245454545454545	-0.09489795918367348
275632.2937011719	-6.216867469879518	0.1204819277108434	7.819277108433735	4046.886446886447	366.2064672062109	76.92307692307692	-66.15384615384615	-16.92307692307692	-0.9845454545454545	0.3090909090909091	-0.0989795918367347
275651.8249511719	-6.216867469879518	0.1325301204819277	7.843373493975904	4051.282051282051	366.2064672062109	67.69230769230768	-55.38461538461538	-4.615384615384615	-0.9863636363636363	0.31	-0.1030612244897959
275671.3562011719	-6.265060240963856	0.108433734939759	7.819277108433735	4039.560439560439	366.2064672062109	78.46153846153845	-40	-26.15384615384615	-0.9845454545454545	0.3218181818181818	-0.09489795918367348
275690.8874511719	-6.240963855421687	0.108433734939759	7.819277108433735	4055.677655677655	366.2064672062109	75.38461538461537	-80	-13.84615384615385	-0.9827272727272727	0.3118181818181818	-0.09489795918367348
275710.4187011719	-6.253012048192772	0.1325301204819277	7.843373493975904	4055.677655677655	366.0054168801698	80	-64.61538461538461	-23.07692307692307	-0.9836363636363636	0.31	-0.1
275729.9499511719	-6.240963855421687	0.1204819277108434	7.83132530120482	4038.095238095238	365.6039777712782	70.76923076923076	-86.15384615384615	-41.53846153846153	-0.980909090909091	0.3254545454545454	-0.0979591836734694
